time,ax,ay,az,atotal
0.000,-0.03,0.19,-0.09,0.21
0.010,0.01,0.10,-0.05,0.11
0.020,0.10,-0.05,0.02,0.12
0.030,0.15,-0.14,0.06,0.21
0.040,0.14,-0.19,0.07,0.25
0.050,0.18,-0.19,0.07,0.27
0.060,0.19,-0.13,0.04,0.23
0.070,0.16,-0.02,0.03,0.17
0.080,0.11,0.04,-0.01,0.12
0.090,0.07,0.05,0.01,0.09
0.101,0.04,0.01,0.02,0.05
0.111,0.03,-0.01,-0.01,0.03
0.121,-0.01,0.00,-0.03,0.03
0.131,-0.02,-0.01,0.02,0.03
0.141,0.01,-0.05,0.04,0.07
0.151,0.03,-0.05,0.06,0.08
0.161,-0.00,0.01,0.01,0.01
0.171,-0.01,0.04,-0.01,0.04
0.181,0.05,0.01,-0.01,0.05
0.191,0.09,-0.02,-0.03,0.10
0.201,0.10,-0.04,-0.02,0.11
0.211,0.11,-0.05,0.02,0.12
0.221,0.12,-0.06,0.02,0.14
0.231,0.11,-0.06,0.01,0.13
0.241,0.09,-0.05,0.01,0.10
0.251,0.06,-0.03,0.05,0.08
0.262,0.03,-0.02,0.11,0.12
0.272,0.02,-0.02,0.12,0.12
0.282,0.02,-0.00,0.07,0.08
0.292,0.02,0.01,0.05,0.05
0.302,0.04,-0.06,0.03,0.08
0.312,0.07,-0.07,0.03,0.10
0.322,0.08,-0.05,-0.02,0.10
0.332,0.07,-0.02,-0.04,0.08
0.342,0.02,0.01,0.03,0.04
0.352,-0.01,0.06,0.05,0.08
0.362,0.01,0.04,0.07,0.08
0.372,0.04,0.04,0.03,0.07
0.382,0.07,0.02,0.01,0.07
0.392,0.10,0.01,-0.01,0.11
0.402,0.09,-0.01,-0.04,0.10
0.412,0.08,-0.01,-0.06,0.10
0.422,0.06,-0.02,-0.09,0.11
0.433,0.07,-0.02,-0.03,0.08
0.442,0.09,-0.04,0.07,0.12
0.453,0.13,-0.06,0.11,0.18
0.463,0.15,-0.05,0.13,0.21
0.473,0.14,-0.02,0.13,0.19
0.483,0.10,-0.04,0.06,0.12
0.493,0.06,-0.04,0.00,0.07
0.503,0.02,-0.04,0.03,0.06
0.513,0.05,-0.07,0.04,0.09
0.523,0.00,-0.06,0.06,0.09
0.533,-0.00,-0.07,0.08,0.11
0.543,0.04,-0.07,0.16,0.18
0.553,0.10,-0.05,0.20,0.23
0.563,0.17,-0.02,0.14,0.22
0.573,0.22,0.01,0.06,0.22
0.583,0.23,0.02,-0.02,0.23
0.593,0.25,0.01,-0.06,0.25
0.603,0.22,-0.01,-0.09,0.24
0.613,0.16,-0.03,-0.11,0.19
0.624,0.12,-0.04,-0.11,0.17
0.634,0.05,0.00,-0.10,0.11
0.644,-0.02,0.07,-0.09,0.12
0.654,-0.07,0.12,-0.09,0.17
0.664,-0.08,0.13,-0.09,0.17
0.674,-0.03,0.09,-0.07,0.12
0.684,0.03,0.06,-0.06,0.09
0.694,0.10,0.04,-0.07,0.13
0.704,0.11,0.05,-0.11,0.16
0.714,0.12,0.05,-0.12,0.18
0.724,0.13,0.08,-0.16,0.22
0.734,0.11,0.10,-0.20,0.25
0.744,0.14,0.10,-0.21,0.27
0.754,0.02,0.02,-0.20,0.21
0.764,-0.03,0.00,-0.16,0.16
0.774,-0.05,0.00,-0.11,0.13
0.785,-0.12,-0.01,-0.02,0.12
0.794,-0.13,0.01,0.01,0.13
0.805,-0.16,0.03,-0.00,0.16
0.815,-0.13,0.06,-0.02,0.14
0.825,-0.12,0.03,0.01,0.13
0.835,-0.12,-0.01,0.06,0.13
0.845,-0.09,-0.03,0.06,0.11
0.855,-0.05,-0.02,0.04,0.07
0.865,0.02,-0.01,0.04,0.05
0.875,0.09,-0.03,0.07,0.12
0.885,0.14,-0.06,0.05,0.16
0.895,0.15,-0.05,-0.01,0.16
0.905,0.14,-0.05,-0.01,0.15
0.915,0.14,-0.08,0.05,0.17
0.925,0.16,-0.11,0.13,0.23
0.935,0.19,-0.12,0.15,0.27
0.945,0.19,-0.12,0.12,0.26
0.955,0.15,-0.10,0.09,0.21
0.965,0.13,-0.11,0.13,0.21
0.975,0.11,-0.11,0.17,0.23
0.986,0.05,-0.06,0.16,0.18
0.996,-0.06,-0.04,0.13,0.15
1.006,-0.17,-0.02,0.12,0.20
1.016,-0.19,-0.01,0.09,0.21
1.026,-0.14,-0.04,0.06,0.16
1.036,-0.05,-0.06,0.06,0.10
1.046,0.07,-0.08,0.07,0.13
1.056,0.17,-0.07,0.07,0.20
1.066,0.25,-0.05,0.11,0.28
1.076,0.30,-0.03,0.10,0.32
1.086,0.33,-0.04,0.09,0.34
1.096,0.33,-0.06,0.12,0.35
1.106,0.33,-0.06,0.11,0.35
1.116,0.28,-0.08,0.09,0.31
1.126,0.24,-0.09,0.06,0.26
1.136,0.20,-0.07,-0.02,0.21
1.146,0.14,-0.05,-0.05,0.16
1.157,0.10,-0.05,-0.02,0.11
1.167,0.04,-0.03,0.03,0.05
1.177,0.01,-0.01,0.12,0.12
1.187,0.07,-0.03,0.19,0.20
1.197,0.13,-0.04,0.21,0.25
1.207,0.17,-0.02,0.13,0.22
1.217,0.19,0.00,0.07,0.20
1.227,0.24,0.04,0.08,0.25
1.237,0.31,0.05,0.04,0.31
1.247,0.30,0.07,-0.00,0.31
1.257,0.28,0.07,0.00,0.29
1.267,0.21,0.01,-0.02,0.21
1.277,0.06,-0.11,-0.07,0.14
1.287,-0.03,-0.24,-0.10,0.26
1.297,-0.11,-0.28,-0.09,0.31
1.307,-0.17,-0.12,-0.04,0.21
1.317,-0.14,0.08,-0.00,0.16
1.327,-0.10,0.21,-0.03,0.23
1.338,-0.08,0.26,-0.11,0.29
1.348,-0.09,0.22,-0.18,0.30
1.358,-0.13,0.11,-0.19,0.26
1.368,-0.17,-0.01,-0.16,0.23
1.378,-0.15,-0.12,-0.12,0.23
1.388,-0.11,-0.15,-0.12,0.22
1.398,-0.06,-0.12,-0.10,0.16
1.408,0.00,-0.07,-0.08,0.10
1.418,0.03,-0.03,-0.00,0.05
1.428,0.01,-0.01,0.03,0.03
1.438,-0.00,0.01,0.10,0.10
1.448,0.00,0.01,0.15,0.15
1.458,0.02,0.02,0.16,0.17
1.468,0.01,0.02,0.14,0.14
1.478,-0.03,-0.01,0.09,0.09
1.488,-0.05,-0.02,0.02,0.06
1.498,-0.08,-0.03,-0.02,0.08
1.508,-0.06,-0.04,-0.10,0.13
1.518,-0.07,-0.00,-0.16,0.18
1.529,-0.08,0.03,-0.17,0.19
1.539,-0.04,0.07,-0.12,0.15
1.549,0.03,0.09,-0.08,0.13
1.559,0.09,0.12,-0.11,0.18
1.569,0.10,0.10,-0.13,0.19
1.579,0.07,0.07,-0.12,0.15
1.589,0.02,0.06,-0.11,0.12
1.599,0.01,0.01,-0.08,0.08
1.609,0.00,-0.02,-0.06,0.06
1.619,0.02,-0.01,0.02,0.03
1.629,0.06,0.01,0.13,0.14
1.639,0.21,0.06,0.14,0.26
1.649,0.32,0.12,0.13,0.36
1.659,0.37,0.10,0.04,0.38
1.669,0.36,0.07,-0.08,0.38
1.679,0.29,0.01,-0.16,0.33
1.689,0.17,-0.03,-0.16,0.24
1.700,0.12,-0.07,-0.15,0.20
1.710,0.08,-0.08,-0.11,0.15
1.720,0.08,-0.04,-0.09,0.13
1.730,0.11,-0.02,-0.07,0.13
1.740,0.10,0.02,-0.04,0.11
1.750,0.06,0.03,-0.01,0.07
1.760,0.02,0.01,0.04,0.04
1.770,-0.03,-0.04,0.09,0.11
1.780,-0.05,-0.08,0.15,0.17
1.790,-0.04,-0.08,0.18,0.20
1.800,-0.00,-0.08,0.17,0.19
1.810,0.04,-0.06,0.16,0.18
1.820,0.06,-0.03,0.14,0.15
1.830,0.06,-0.04,0.11,0.13
1.840,0.07,-0.02,0.07,0.10
1.850,0.08,0.01,0.02,0.08
1.860,0.07,0.03,-0.06,0.09
1.871,0.07,0.03,-0.09,0.12
1.881,0.06,0.04,-0.11,0.14
1.891,0.04,0.01,-0.11,0.12
1.901,0.05,-0.02,-0.06,0.08
1.911,0.04,-0.04,-0.03,0.06
1.921,0.05,-0.03,0.01,0.06
1.931,0.10,-0.01,0.02,0.10
1.941,0.13,0.03,0.00,0.13
1.951,0.14,0.03,-0.01,0.15
1.961,0.16,-0.00,0.02,0.16
1.971,0.14,-0.03,0.07,0.16
1.981,0.15,-0.07,0.09,0.19
1.991,0.13,-0.08,0.10,0.18
2.001,0.05,-0.07,0.08,0.12
2.011,-0.03,-0.04,0.05,0.07
2.021,-0.08,-0.03,0.00,0.09
2.031,-0.14,-0.00,0.00,0.14
2.041,-0.15,0.03,0.01,0.15
2.051,-0.09,0.03,0.04,0.11
2.061,0.01,0.03,0.04,0.06
2.072,0.13,0.02,0.01,0.13
2.082,0.17,-0.01,-0.02,0.17
2.092,0.17,-0.04,-0.03,0.18
2.102,0.14,-0.06,-0.04,0.16
2.112,0.08,-0.07,-0.03,0.11
2.122,0.01,-0.08,-0.03,0.08
2.132,-0.03,-0.05,-0.02,0.07
2.142,-0.02,-0.02,0.02,0.03
2.152,0.03,0.03,0.06,0.07
2.162,0.12,0.06,0.09,0.16
2.172,0.17,0.06,0.06,0.18
2.182,0.20,0.03,0.03,0.20
2.192,0.17,-0.03,0.01,0.18
2.202,0.16,-0.10,0.01,0.19
2.213,0.16,-0.12,0.02,0.20
2.223,0.13,-0.11,0.04,0.18
2.233,0.09,-0.07,0.01,0.12
2.243,0.04,-0.02,0.04,0.06
2.253,0.00,0.01,0.05,0.05
2.263,-0.02,0.03,0.06,0.07
2.273,-0.03,0.01,0.06,0.06
2.283,-0.03,0.01,0.03,0.05
2.293,-0.00,0.01,-0.00,0.01
2.303,0.03,0.03,-0.06,0.08
2.313,0.05,0.03,-0.08,0.10
2.323,0.06,-0.00,-0.08,0.10
2.333,0.08,-0.03,-0.01,0.08
2.343,0.06,-0.07,0.07,0.12
2.353,0.08,-0.10,0.08,0.15
2.363,0.10,-0.08,0.05,0.14
2.373,0.10,-0.03,-0.02,0.11
2.383,0.09,0.04,-0.04,0.11
2.393,0.07,0.06,-0.05,0.11
2.403,0.05,0.05,-0.02,0.07
2.413,0.04,-0.00,0.04,0.06
2.423,0.04,-0.03,0.04,0.06
2.433,0.04,-0.04,0.02,0.06
2.443,0.05,-0.03,-0.00,0.05
2.454,0.05,-0.01,-0.04,0.07
2.464,0.05,0.01,-0.07,0.09
2.474,0.03,0.02,-0.07,0.08
2.485,0.02,0.03,-0.05,0.06
2.494,0.04,0.01,-0.00,0.04
2.504,0.06,-0.02,0.03,0.07
2.514,0.11,-0.02,0.02,0.11
2.524,0.10,0.00,-0.01,0.10
2.534,0.09,0.02,-0.01,0.09
2.544,0.09,0.01,0.01,0.09
2.554,0.09,-0.01,0.04,0.10
2.564,0.09,-0.01,0.02,0.09
2.574,0.06,-0.02,-0.02,0.07
2.585,0.02,-0.02,-0.05,0.06
2.595,0.00,-0.00,-0.05,0.05
2.605,-0.02,-0.00,-0.04,0.04
2.615,-0.05,0.00,-0.02,0.05
2.625,-0.02,0.01,-0.00,0.02
2.635,0.01,-0.00,0.03,0.03
2.645,0.07,-0.02,0.05,0.09
2.655,0.09,-0.03,0.03,0.10
2.665,0.10,-0.01,0.04,0.11
2.675,0.10,-0.02,0.04,0.11
2.685,0.08,-0.01,0.01,0.08
2.695,0.04,-0.00,-0.04,0.05
2.705,-0.01,-0.00,-0.05,0.05
2.715,-0.04,0.00,-0.03,0.05
2.725,-0.02,-0.01,-0.01,0.03
2.735,0.01,-0.01,0.02,0.02
2.745,0.07,-0.01,0.03,0.07
2.755,0.09,-0.02,0.01,0.09
2.766,0.12,-0.03,0.00,0.12
2.776,0.12,-0.02,-0.01,0.12
2.786,0.10,-0.01,-0.01,0.10
2.796,0.06,-0.02,-0.01,0.06
2.806,0.03,-0.01,0.03,0.04
2.816,0.02,0.00,-0.00,0.02
2.826,-0.01,0.03,-0.03,0.05
2.836,0.01,0.04,-0.02,0.05
2.846,0.02,0.02,0.01,0.03
2.856,0.04,0.01,0.02,0.05
2.866,0.09,-0.00,-0.01,0.09
2.876,0.14,-0.01,-0.03,0.14
2.886,0.13,-0.03,0.01,0.13
2.896,0.10,-0.03,0.03,0.11
2.906,0.07,-0.04,0.07,0.10
2.916,0.04,-0.04,0.07,0.09
2.926,0.03,-0.05,0.04,0.07
2.937,0.04,-0.04,0.05,0.07
2.947,0.07,0.00,0.02,0.07
2.957,0.07,0.02,0.02,0.08
2.967,0.07,0.01,0.00,0.07
2.977,0.06,-0.02,0.04,0.07
2.987,0.05,-0.03,0.07,0.09
2.997,0.04,-0.04,0.04,0.07
3.007,0.00,-0.03,-0.01,0.03
3.017,-0.03,-0.00,-0.03,0.04
3.027,0.00,-0.00,-0.01,0.01
3.037,0.06,-0.00,0.02,0.07
3.047,0.13,0.01,-0.00,0.13
3.057,0.15,0.01,-0.01,0.15
3.067,0.14,0.03,-0.03,0.14
3.077,0.11,0.04,-0.05,0.13
3.087,0.08,0.02,-0.04,0.09
3.097,0.06,-0.01,-0.04,0.07
3.107,0.04,-0.05,-0.03,0.07
3.118,0.03,-0.07,-0.01,0.07
3.127,0.02,-0.05,0.03,0.06
3.138,0.02,-0.03,0.07,0.08
3.148,0.04,-0.01,0.05,0.06
3.158,0.03,0.04,-0.01,0.05
3.168,0.01,0.06,-0.03,0.07
3.178,-0.01,0.05,-0.05,0.08
3.188,-0.02,0.02,-0.09,0.09
3.198,-0.07,0.01,-0.11,0.13
3.208,-0.05,-0.02,-0.06,0.08
3.218,0.01,-0.02,-0.00,0.03
3.228,0.06,-0.01,0.02,0.07
3.238,0.08,-0.01,0.00,0.08
3.248,0.08,0.01,-0.02,0.08
3.258,0.05,0.01,-0.01,0.05
3.269,0.03,0.01,-0.02,0.04
3.278,0.03,-0.00,-0.01,0.03
3.289,0.03,-0.02,0.03,0.04
3.298,0.06,-0.00,0.01,0.06
3.309,0.05,0.01,-0.01,0.06
3.319,0.06,0.02,-0.02,0.07
3.329,0.06,-0.00,-0.01,0.06
3.339,0.07,-0.03,0.03,0.08
3.349,0.09,-0.02,0.03,0.10
3.359,0.09,-0.01,0.03,0.09
3.369,0.09,0.00,0.02,0.10
3.379,0.09,0.02,-0.05,0.11
3.389,0.12,-0.01,-0.05,0.13
3.399,0.12,-0.01,-0.04,0.12
3.409,0.09,0.00,-0.04,0.10
3.419,0.10,-0.01,0.01,0.10
3.429,0.12,-0.02,0.05,0.14
3.439,0.13,-0.03,0.11,0.17
3.449,0.11,-0.03,0.14,0.18
3.459,0.08,-0.05,0.12,0.15
3.469,0.03,-0.06,0.09,0.12
3.480,-0.03,-0.07,0.07,0.10
3.490,-0.05,-0.06,0.05,0.10
3.500,-0.05,-0.05,0.04,0.08
3.510,-0.04,-0.03,0.04,0.07
3.520,-0.02,-0.03,0.03,0.04
3.530,0.02,-0.02,-0.02,0.04
3.540,0.02,-0.00,-0.07,0.07
3.550,-0.02,0.00,-0.08,0.08
3.560,-0.03,0.01,-0.07,0.07
3.570,-0.04,0.01,-0.07,0.08
3.580,-0.05,0.00,-0.03,0.06
3.590,-0.00,0.02,-0.00,0.02
3.600,0.04,0.01,-0.00,0.04
3.610,0.07,0.00,-0.03,0.08
3.620,0.07,0.01,-0.03,0.08
3.630,0.06,0.00,-0.01,0.06
3.640,0.03,-0.02,0.06,0.07
3.651,0.05,-0.05,0.10,0.12
3.660,0.09,-0.06,0.10,0.14
3.671,0.10,-0.05,0.09,0.14
3.681,0.12,-0.03,0.07,0.14
3.691,0.11,-0.02,0.05,0.12
3.701,0.10,-0.02,0.02,0.11
3.711,0.09,-0.01,-0.02,0.09
3.721,0.10,0.01,-0.08,0.13
3.731,0.10,0.03,-0.09,0.14
3.741,0.08,0.05,-0.10,0.14
3.751,0.04,0.04,-0.07,0.09
3.761,0.00,0.02,0.00,0.02
3.771,0.02,-0.01,0.04,0.05
3.781,0.04,-0.04,0.05,0.07
3.791,0.05,-0.03,0.03,0.06
3.801,0.03,-0.03,0.00,0.04
3.811,0.00,-0.01,-0.03,0.03
3.822,0.00,0.02,-0.02,0.03
3.831,-0.00,0.05,-0.03,0.06
3.842,0.02,0.05,-0.02,0.06
3.852,0.02,0.03,-0.03,0.05
3.862,0.02,0.00,-0.00,0.02
3.872,0.02,-0.03,0.02,0.04
3.882,0.04,-0.05,0.03,0.07
3.892,0.05,-0.02,-0.01,0.05
3.902,0.07,-0.01,-0.02,0.07
3.912,0.05,0.00,-0.02,0.06
3.922,0.03,0.02,0.01,0.03
3.932,0.02,-0.01,0.05,0.05
3.942,0.05,-0.01,0.06,0.08
3.952,0.08,-0.00,0.03,0.08
3.962,0.10,0.02,0.00,0.11
3.972,0.13,0.03,-0.02,0.13
3.982,0.11,0.01,-0.05,0.12
3.992,0.04,-0.02,-0.00,0.04
4.002,-0.02,-0.06,0.04,0.07
4.013,-0.04,-0.08,0.09,0.13
4.023,-0.02,-0.07,0.07,0.10
4.033,-0.01,-0.04,0.02,0.04
4.043,0.03,0.01,-0.01,0.03
4.053,0.04,0.03,-0.01,0.05
4.063,0.05,0.02,-0.02,0.05
4.073,0.03,0.02,-0.01,0.04
4.083,0.02,-0.00,0.01,0.02
4.093,0.02,-0.03,0.06,0.07
4.103,0.03,-0.02,0.06,0.07
4.113,0.05,-0.02,0.01,0.06
4.123,0.05,-0.03,-0.00,0.05
4.133,0.04,-0.02,-0.01,0.05
4.143,0.06,-0.01,0.03,0.06
4.153,0.06,0.01,0.00,0.06
4.163,0.05,0.03,-0.01,0.06
4.173,0.05,0.05,-0.03,0.07
4.183,0.03,0.02,-0.04,0.06
4.193,-0.02,0.01,-0.03,0.04
4.204,-0.06,-0.02,0.01,0.07
4.214,-0.07,-0.04,0.08,0.11
4.224,-0.04,-0.05,0.07,0.10
4.234,0.02,-0.06,0.09,0.11
4.244,0.11,-0.05,0.08,0.15
4.254,0.16,-0.01,0.07,0.18
4.264,0.18,-0.02,0.01,0.19
4.274,0.17,-0.01,-0.02,0.17
4.284,0.11,-0.00,-0.08,0.13
4.294,0.04,-0.00,-0.06,0.07
4.304,0.00,-0.01,-0.04,0.04
4.314,-0.04,-0.03,0.00,0.05
4.324,-0.01,-0.02,0.01,0.03
4.334,0.00,-0.00,0.02,0.02
4.344,-0.00,0.02,-0.00,0.02
4.354,-0.03,0.05,-0.01,0.06
4.364,-0.04,0.03,0.01,0.05
4.375,-0.03,-0.00,0.04,0.05
4.385,-0.00,-0.05,0.06,0.08
4.395,0.04,-0.06,0.09,0.11
4.405,0.09,-0.05,0.11,0.15
4.415,0.12,-0.04,0.11,0.17
4.425,0.13,-0.02,0.05,0.14
4.435,0.06,-0.01,0.00,0.06
4.445,0.01,0.01,-0.01,0.02
4.455,0.00,-0.01,0.02,0.02
4.465,-0.03,-0.03,0.00,0.04
4.475,-0.05,-0.04,-0.02,0.06
4.485,-0.03,-0.04,0.02,0.05
4.495,0.02,0.01,0.01,0.02
4.505,0.07,0.03,-0.05,0.09
4.515,0.08,0.07,-0.08,0.13
4.525,0.04,0.08,-0.08,0.12
4.536,0.01,0.03,-0.04,0.05
4.546,-0.00,-0.05,0.03,0.06
4.556,0.00,-0.10,0.07,0.12
4.566,0.04,-0.10,0.07,0.13
4.576,0.09,-0.05,0.06,0.12
4.586,0.10,0.00,0.03,0.10
4.596,0.08,0.03,0.03,0.09
4.606,0.08,0.03,0.01,0.09
4.616,0.08,0.02,-0.00,0.08
4.626,0.07,-0.00,-0.01,0.07
4.636,0.06,-0.03,-0.02,0.07
4.646,0.06,-0.05,-0.01,0.08
4.656,0.03,-0.05,0.02,0.06
4.666,0.04,-0.04,0.05,0.07
4.676,0.05,-0.01,0.07,0.09
4.686,0.05,0.02,0.03,0.06
4.696,0.05,0.02,-0.03,0.06
4.707,0.00,0.03,-0.05,0.05
4.716,-0.01,0.01,-0.05,0.05
4.726,0.00,-0.00,-0.03,0.03
4.737,0.03,-0.03,-0.01,0.04
4.747,0.06,-0.04,0.01,0.07
4.757,0.05,-0.04,0.01,0.07
4.767,0.06,-0.03,0.01,0.07
4.777,0.06,0.00,0.01,0.06
4.787,0.03,0.02,-0.02,0.04
4.797,0.02,-0.00,-0.01,0.02
4.807,0.02,-0.02,0.02,0.03
4.817,0.02,-0.02,0.01,0.03
4.827,0.02,-0.01,-0.01,0.03
4.837,0.04,0.01,-0.05,0.07
4.847,0.05,0.02,-0.03,0.06
4.857,0.04,0.02,-0.00,0.04
4.867,0.02,-0.00,0.01,0.03
4.877,0.01,-0.02,-0.01,0.02
4.887,-0.01,-0.01,-0.02,0.03
4.897,-0.04,-0.01,-0.02,0.05
4.907,-0.03,-0.00,0.00,0.03
4.918,0.00,-0.00,0.03,0.03
4.928,0.01,0.01,0.03,0.04
4.938,0.00,0.02,-0.01,0.02
4.948,-0.02,0.03,-0.04,0.05
4.958,-0.03,0.00,-0.06,0.07
4.968,0.00,-0.01,-0.05,0.05
4.978,0.00,-0.00,-0.06,0.06
4.988,0.03,-0.01,-0.01,0.03
4.998,0.06,-0.01,0.02,0.07
5.008,0.07,0.01,0.01,0.07
5.018,0.06,0.01,0.01,0.06
5.028,0.02,-0.00,0.03,0.04
5.038,0.01,0.00,0.03,0.03
5.048,0.01,-0.00,0.00,0.01
5.058,0.02,0.00,-0.02,0.03
5.068,0.04,0.00,-0.01,0.05
5.079,0.05,-0.01,0.03,0.05
5.089,0.07,-0.02,0.06,0.10
5.099,0.07,-0.05,0.08,0.12
5.109,0.05,-0.07,0.06,0.10
5.119,0.03,-0.05,0.04,0.07
5.129,0.05,-0.01,0.02,0.05
5.139,0.06,0.02,0.01,0.06
5.149,0.05,0.01,0.02,0.05
5.159,0.03,-0.00,0.01,0.03
5.169,0.02,-0.02,0.02,0.04
5.179,0.00,-0.02,0.03,0.04
5.189,0.01,-0.01,0.05,0.05
5.199,0.01,-0.01,0.03,0.04
5.209,0.02,-0.01,0.01,0.03
5.219,0.04,-0.01,0.02,0.04
5.229,0.04,-0.00,0.01,0.04
5.239,0.03,0.02,0.00,0.04
5.250,0.02,0.02,-0.01,0.03
5.260,0.02,0.01,0.00,0.02
5.270,0.01,-0.01,0.01,0.02
5.280,-0.01,-0.02,0.02,0.03
5.290,-0.04,-0.03,0.04,0.07
5.300,-0.04,-0.04,0.04,0.07
5.310,-0.02,-0.02,0.03,0.04
5.320,0.01,0.01,0.02,0.02
5.330,0.03,0.03,0.00,0.04
5.340,0.02,0.04,-0.03,0.05
5.350,-0.02,0.02,-0.06,0.07
5.360,-0.03,-0.01,-0.07,0.08
5.370,-0.05,-0.02,-0.05,0.07
5.380,-0.02,-0.01,-0.01,0.03
5.390,0.01,-0.01,0.02,0.02
5.400,0.02,0.02,-0.00,0.03
5.410,0.05,0.02,-0.04,0.07
5.420,0.05,0.04,-0.03,0.07
5.430,0.05,0.03,-0.01,0.06
5.441,0.04,0.00,-0.03,0.05
5.451,0.01,-0.02,0.01,0.03
5.461,0.01,-0.04,0.04,0.05
5.471,0.03,-0.03,0.06,0.08
5.481,0.05,-0.01,0.07,0.09
5.491,0.06,-0.00,0.05,0.08
5.501,0.06,-0.00,0.02,0.07
5.511,0.07,-0.02,0.00,0.07
5.521,0.06,-0.03,-0.03,0.08
5.531,0.04,-0.01,-0.06,0.07
5.541,-0.01,0.02,-0.00,0.02
5.551,-0.02,-0.00,0.05,0.06
5.561,-0.03,-0.01,0.05,0.06
5.571,-0.04,-0.01,0.04,0.05
5.581,-0.03,0.00,0.01,0.03
5.591,0.00,0.03,-0.05,0.06
5.602,0.06,0.03,-0.07,0.10
5.611,0.07,0.02,-0.06,0.09
5.622,0.04,0.01,-0.01,0.04
5.632,0.02,-0.00,0.05,0.06
5.642,0.02,-0.03,0.05,0.06
5.652,0.03,-0.03,0.02,0.04
5.662,0.00,-0.03,-0.02,0.04
5.672,-0.00,-0.02,-0.04,0.05
5.682,0.01,-0.01,0.01,0.02
5.692,0.02,-0.02,0.03,0.04
5.702,0.04,-0.01,0.01,0.05
5.712,0.03,0.02,-0.04,0.05
5.722,0.02,0.03,-0.05,0.06
5.732,0.02,0.01,-0.00,0.02
5.742,0.01,-0.01,0.05,0.06
5.752,-0.00,-0.01,0.06,0.06
5.763,0.01,-0.01,0.05,0.05
5.773,0.04,0.01,0.01,0.05
5.783,0.04,0.02,-0.04,0.06
5.793,0.04,0.04,-0.07,0.09
5.803,0.02,0.02,-0.07,0.07
5.813,-0.01,-0.01,-0.06,0.06
5.823,-0.02,-0.03,-0.01,0.04
5.833,0.02,-0.04,0.04,0.06
5.843,0.05,-0.04,0.05,0.08
5.853,0.07,-0.03,0.02,0.08
5.863,0.08,-0.02,0.01,0.08
5.873,0.07,-0.01,0.02,0.07
5.883,0.06,-0.02,0.01,0.06
5.893,0.03,-0.01,-0.00,0.03
5.903,0.01,-0.00,-0.00,0.01
5.913,0.00,0.00,-0.02,0.02
5.923,-0.02,0.01,-0.03,0.03
5.933,0.01,0.00,-0.01,0.02
5.943,0.02,-0.01,-0.03,0.04
5.954,0.00,-0.00,-0.04,0.04
5.963,-0.02,-0.00,-0.03,0.03
5.974,-0.03,-0.01,-0.01,0.03
5.984,-0.03,-0.00,-0.01,0.03
5.994,-0.04,0.00,-0.01,0.05
6.004,-0.04,0.01,0.02,0.05
6.014,-0.05,0.02,0.03,0.06
6.024,-0.04,0.03,0.02,0.05
6.034,-0.01,0.01,0.03,0.03
6.044,0.00,-0.00,0.02,0.02
6.054,0.02,-0.02,0.01,0.03
6.064,0.06,-0.04,0.03,0.07
6.074,0.08,-0.05,0.01,0.09
6.084,0.07,-0.03,-0.00,0.08
6.094,0.05,0.00,-0.00,0.05
6.104,0.02,0.02,0.02,0.04
6.114,0.02,0.01,-0.00,0.02
6.124,-0.01,0.02,-0.02,0.03
6.135,-0.02,0.02,-0.02,0.03
6.144,0.01,0.00,-0.01,0.01
6.155,0.03,-0.01,0.05,0.06
6.165,0.06,-0.01,0.03,0.07
6.175,0.05,0.00,0.01,0.05
6.185,0.07,0.01,0.02,0.07
6.195,0.07,-0.02,0.03,0.08
6.205,0.06,-0.02,0.03,0.08
6.215,0.03,-0.04,0.01,0.05
6.225,0.03,-0.04,0.02,0.05
6.235,0.03,-0.03,0.05,0.06
6.245,0.05,0.00,0.03,0.06
6.255,0.03,0.01,0.02,0.04
6.265,0.02,0.01,0.03,0.04
6.275,0.01,0.01,0.03,0.04
6.285,0.00,-0.02,0.03,0.03
6.295,-0.01,-0.01,0.00,0.02
6.305,-0.01,-0.01,-0.02,0.03
6.315,0.02,0.00,-0.02,0.03
6.325,0.03,0.02,-0.02,0.04
6.336,0.03,0.01,-0.02,0.04
6.346,0.03,0.01,-0.02,0.04
6.356,0.02,0.00,-0.02,0.03
6.366,0.03,-0.02,-0.03,0.05
6.376,0.02,-0.00,-0.02,0.03
6.386,0.04,0.00,0.00,0.04
6.396,0.05,0.01,0.02,0.06
6.406,0.07,0.01,0.04,0.08
6.416,0.06,0.02,0.00,0.07
6.426,0.02,0.01,-0.01,0.03
6.436,-0.01,0.01,-0.03,0.04
6.446,-0.04,0.01,-0.04,0.06
6.456,-0.03,-0.01,-0.02,0.04
6.466,-0.01,0.00,-0.01,0.01
6.476,-0.01,0.02,-0.05,0.06
6.486,0.00,0.04,-0.06,0.07
6.496,0.01,0.03,-0.02,0.04
6.507,0.00,0.02,-0.00,0.02
6.517,0.01,0.02,0.00,0.02
6.527,0.00,-0.02,0.00,0.02
6.537,0.00,-0.03,0.04,0.05
6.547,0.01,-0.02,0.02,0.03
6.557,0.00,-0.01,0.00,0.01
6.567,0.01,0.01,0.01,0.02
6.577,0.02,0.03,0.00,0.03
6.587,0.03,0.02,-0.02,0.04
6.597,0.02,0.02,-0.02,0.04
6.607,-0.00,0.00,0.01,0.01
6.617,0.00,-0.01,0.02,0.03
6.627,0.04,-0.01,0.04,0.06
6.637,0.05,-0.01,0.05,0.08
6.647,0.07,-0.04,0.10,0.13
6.657,0.04,-0.05,0.05,0.09
6.668,0.00,-0.05,-0.00,0.05
6.677,-0.02,0.01,-0.02,0.03
6.688,-0.01,0.03,0.02,0.03
6.698,0.02,0.03,0.05,0.06
6.708,0.03,0.03,0.04,0.06
6.718,0.04,0.02,-0.03,0.06
6.728,-0.00,-0.00,-0.04,0.04
6.738,-0.03,-0.03,-0.01,0.04
6.748,-0.04,-0.06,0.01,0.07
6.758,-0.05,-0.07,-0.02,0.09
6.768,-0.01,-0.05,-0.02,0.05
6.778,0.03,-0.01,-0.04,0.05
6.788,0.04,0.03,-0.02,0.05
6.798,0.05,0.03,-0.00,0.06
6.808,0.04,0.02,0.00,0.04
6.818,0.01,-0.01,0.02,0.02
6.828,-0.02,-0.02,0.02,0.03
6.838,-0.03,-0.03,0.00,0.04
6.849,-0.02,-0.03,0.01,0.03
6.858,0.00,-0.01,0.02,0.03
6.869,0.05,-0.00,0.02,0.06
6.879,0.04,0.03,-0.01,0.05
6.889,0.00,0.05,-0.06,0.08
6.899,-0.04,0.06,-0.10,0.13
6.909,-0.07,0.02,-0.07,0.10
6.919,-0.07,0.01,-0.04,0.08
6.929,-0.05,-0.02,-0.01,0.05
6.939,0.01,-0.01,0.01,0.02
6.949,0.03,-0.01,0.02,0.04
6.959,0.05,-0.01,0.02,0.05
6.969,0.04,-0.01,-0.00,0.04
6.979,0.04,-0.01,-0.02,0.04
6.989,0.05,-0.04,-0.01,0.06
6.999,0.04,-0.03,-0.01,0.05
7.009,0.05,-0.01,-0.00,0.05
7.019,0.04,0.01,0.02,0.04
7.029,0.04,0.01,0.02,0.05
7.040,0.02,0.02,0.01,0.03
7.050,0.00,0.00,0.01,0.01
7.060,0.01,-0.03,0.00,0.03
7.070,0.03,-0.04,-0.01,0.05
7.080,0.03,-0.03,0.02,0.05
7.090,0.02,-0.03,0.04,0.05
7.100,0.02,-0.01,0.02,0.03
7.110,0.01,0.01,0.02,0.03
7.120,-0.00,0.02,0.03,0.04
7.130,-0.01,0.02,0.01,0.02
7.140,-0.03,0.02,-0.02,0.04
7.150,-0.04,0.02,-0.04,0.06
7.160,-0.03,-0.01,-0.05,0.06
7.170,-0.03,-0.01,-0.02,0.04
7.180,0.00,-0.02,-0.02,0.03
7.190,0.02,-0.03,0.01,0.03
7.200,0.01,-0.00,0.01,0.01
7.211,-0.02,0.01,0.01,0.02
7.221,-0.01,0.01,0.03,0.03
7.231,0.03,0.02,0.00,0.03
7.241,0.04,0.03,-0.03,0.06
7.251,0.05,0.02,-0.02,0.06
7.261,0.07,0.01,-0.04,0.08
7.271,0.05,-0.00,-0.04,0.06
7.281,0.04,-0.01,-0.01,0.04
7.291,0.03,-0.01,0.02,0.04
7.301,0.02,-0.03,0.04,0.05
7.311,0.02,-0.04,0.04,0.06
7.321,0.02,-0.03,0.07,0.08
7.331,0.03,-0.01,0.08,0.08
7.341,0.05,-0.01,0.07,0.09
7.351,0.06,0.01,0.05,0.08
7.361,0.05,-0.01,0.05,0.07
7.371,0.01,-0.04,0.04,0.05
7.381,-0.04,-0.04,0.02,0.06
7.391,-0.06,-0.03,0.04,0.07
7.402,-0.04,-0.02,0.06,0.07
7.412,-0.01,-0.00,0.04,0.04
7.422,-0.00,0.04,0.01,0.04
7.432,0.01,0.04,-0.02,0.04
7.442,-0.01,0.03,-0.03,0.04
7.452,-0.03,0.01,-0.02,0.04
7.462,-0.05,-0.00,-0.03,0.06
7.472,-0.04,0.00,-0.02,0.05
7.482,-0.03,0.02,-0.00,0.04
7.492,-0.02,0.02,-0.02,0.04
7.502,0.00,0.01,-0.02,0.02
7.512,0.02,0.01,-0.01,0.03
7.522,0.05,0.00,-0.04,0.07
7.532,0.07,0.02,-0.10,0.12
7.542,0.07,0.03,-0.07,0.11
7.552,0.07,0.01,-0.01,0.07
7.562,0.05,-0.02,0.05,0.07
7.573,0.05,-0.02,0.04,0.07
7.583,0.03,0.00,0.03,0.04
7.593,-0.01,0.01,0.01,0.02
7.603,-0.03,0.01,0.03,0.05
7.613,-0.05,0.00,0.06,0.07
7.623,-0.04,-0.02,0.06,0.08
7.633,-0.03,-0.04,0.06,0.08
7.643,-0.00,-0.04,0.04,0.06
7.653,0.03,-0.03,0.02,0.05
7.663,0.04,-0.01,0.03,0.05
7.673,0.04,-0.01,0.04,0.06
7.683,0.04,-0.03,0.03,0.06
7.693,0.06,-0.02,-0.02,0.06
7.703,0.06,-0.01,-0.04,0.07
7.713,0.03,0.01,-0.04,0.05
7.723,-0.02,0.02,-0.05,0.05
7.733,-0.02,0.00,0.02,0.03
7.743,-0.01,-0.00,0.02,0.02
7.754,-0.02,0.04,-0.04,0.06
7.764,-0.04,0.07,-0.06,0.10
7.774,-0.02,0.07,-0.08,0.11
7.784,-0.03,0.06,-0.07,0.10
7.794,-0.03,0.04,-0.07,0.09
7.804,-0.03,-0.01,-0.05,0.06
7.814,-0.06,-0.03,0.03,0.07
7.824,-0.05,-0.04,0.06,0.09
7.834,-0.07,-0.05,0.11,0.14
7.844,-0.05,-0.04,0.12,0.14
7.854,-0.03,-0.05,0.11,0.12
7.864,0.01,-0.04,0.05,0.07
7.874,0.05,-0.02,-0.01,0.05
7.884,0.06,0.01,-0.03,0.06
7.894,0.09,0.02,-0.02,0.09
7.904,0.10,0.02,0.02,0.11
7.915,0.10,0.02,0.03,0.10
7.925,0.07,-0.01,0.02,0.07
7.935,0.03,-0.01,-0.03,0.05
7.945,0.05,-0.00,-0.10,0.11
7.955,0.03,-0.01,-0.14,0.14
7.965,0.02,-0.00,-0.14,0.14
7.975,0.02,0.02,-0.07,0.07
7.985,0.05,0.03,-0.02,0.06
7.995,0.05,0.03,0.00,0.06
8.005,0.03,0.03,0.04,0.06
8.015,0.00,0.02,0.01,0.03
8.025,-0.02,0.02,-0.02,0.04
8.035,-0.05,0.00,-0.04,0.06
8.045,-0.06,0.00,-0.08,0.10
8.055,-0.05,-0.00,-0.04,0.06
8.065,-0.03,-0.01,0.02,0.04
8.075,-0.00,-0.03,0.09,0.09
8.085,0.03,-0.01,0.09,0.10
8.096,0.06,0.02,0.07,0.09
8.105,0.07,0.03,0.01,0.08
8.116,0.05,0.02,-0.04,0.07
8.126,0.03,0.00,-0.05,0.06
8.136,0.02,-0.01,0.01,0.03
8.146,0.05,-0.03,0.06,0.08
8.156,0.05,-0.04,0.10,0.12
8.166,0.05,-0.03,0.11,0.12
8.176,0.04,-0.04,0.08,0.10
8.186,0.03,-0.04,0.05,0.07
8.196,0.01,-0.04,0.03,0.05
8.206,-0.01,-0.03,0.03,0.04
8.216,-0.05,-0.00,0.03,0.06
8.226,-0.03,0.02,0.05,0.06
8.236,0.00,0.02,0.06,0.07
8.246,0.04,0.01,0.05,0.06
8.256,0.01,0.02,-0.00,0.02
8.266,-0.03,0.00,0.01,0.03
8.276,-0.01,0.00,0.00,0.01
8.287,-0.01,-0.02,-0.01,0.02
8.297,-0.03,-0.01,0.00,0.03
8.307,-0.02,-0.02,0.02,0.03
8.317,0.01,0.00,0.02,0.02
8.327,0.04,0.04,-0.03,0.06
8.337,0.04,0.05,-0.09,0.11
8.347,0.02,0.06,-0.09,0.10
8.357,-0.01,0.02,-0.04,0.04
8.367,-0.02,-0.03,0.02,0.04
8.377,0.01,-0.08,0.12,0.14
8.387,0.06,-0.08,0.14,0.18
8.397,0.08,-0.04,0.08,0.12
8.407,0.07,0.01,-0.03,0.07
8.417,0.00,0.02,-0.10,0.10
8.427,-0.06,0.01,-0.11,0.13
8.437,-0.07,-0.03,-0.00,0.08
8.447,-0.02,-0.05,0.11,0.12
8.458,0.03,-0.05,0.20,0.21
8.468,0.07,-0.01,0.16,0.18
8.478,0.07,0.04,0.03,0.08
8.488,0.05,0.04,-0.11,0.13
8.498,0.06,0.01,-0.18,0.19
8.508,0.03,-0.03,-0.14,0.15
8.518,0.03,-0.08,-0.03,0.09
8.528,0.05,-0.08,0.09,0.13
8.538,0.09,-0.05,0.17,0.20
8.548,0.15,-0.01,0.25,0.30
8.558,0.21,-0.01,0.25,0.32
8.568,0.24,0.01,0.17,0.29
8.578,0.21,-0.00,0.11,0.23
8.588,0.16,-0.03,0.07,0.18
8.598,0.16,-0.06,0.08,0.19
8.608,0.18,-0.09,0.06,0.21
8.618,0.24,-0.09,0.03,0.25
8.628,0.23,-0.08,-0.02,0.24
8.639,0.23,-0.08,-0.02,0.24
8.649,0.21,-0.09,0.07,0.24
8.659,0.23,-0.10,0.19,0.32
8.669,0.28,-0.10,0.25,0.39
8.679,0.32,-0.07,0.21,0.39
8.689,0.34,-0.06,0.16,0.38
8.699,0.35,-0.06,0.20,0.41
8.709,0.37,-0.10,0.24,0.46
8.719,0.35,-0.12,0.26,0.45
8.729,0.31,-0.17,0.24,0.43
8.739,0.29,-0.18,0.25,0.42
8.749,0.25,-0.18,0.20,0.37
8.759,0.25,-0.17,0.18,0.35
8.769,0.25,-0.13,0.18,0.33
8.779,0.27,-0.12,0.20,0.36
8.789,0.33,-0.12,0.23,0.42
8.799,0.40,-0.06,0.22,0.46
8.810,0.44,-0.05,0.18,0.48
8.820,0.40,-0.05,0.15,0.43
8.830,0.29,-0.10,0.20,0.37
8.840,0.22,-0.17,0.27,0.39
8.850,0.26,-0.23,0.33,0.48
8.860,0.34,-0.23,0.31,0.51
8.870,0.41,-0.21,0.29,0.54
8.880,0.45,-0.16,0.27,0.55
8.890,0.43,-0.16,0.29,0.54
8.900,0.42,-0.19,0.36,0.59
8.910,0.43,-0.23,0.35,0.60
8.920,0.41,-0.23,0.27,0.54
8.930,0.37,-0.19,0.19,0.46
8.940,0.38,-0.16,0.21,0.46
8.950,0.42,-0.16,0.37,0.58
8.960,0.48,-0.18,0.52,0.73
8.970,0.54,-0.16,0.58,0.81
8.980,0.60,-0.10,0.63,0.88
8.990,0.67,-0.08,0.49,0.84
9.001,0.69,-0.12,0.26,0.75
9.010,0.56,-0.11,0.17,0.59
9.021,0.45,-0.05,0.18,0.49
9.031,0.38,0.02,0.10,0.40
9.041,0.28,0.07,-0.24,0.38
9.051,0.21,0.10,-0.14,0.27
9.061,0.16,0.01,0.19,0.25
9.071,0.17,-0.14,0.40,0.46
9.081,0.19,-0.24,0.57,0.65
9.091,0.24,-0.35,0.79,0.90
9.101,0.34,-0.38,0.76,0.91
9.111,0.35,-0.27,0.64,0.78
9.121,0.39,-0.18,0.72,0.84
9.131,0.52,-0.03,0.77,0.93
9.141,0.71,0.26,0.77,1.08
9.151,0.89,0.67,0.71,1.32
9.161,1.06,0.94,0.73,1.59
9.171,1.12,1.08,0.62,1.68
9.182,0.96,1.25,0.53,1.66
9.192,0.58,1.35,0.60,1.58
9.202,0.16,1.22,0.77,1.45
9.212,-0.18,1.06,0.79,1.34
9.222,-0.34,0.93,0.76,1.24
9.232,-0.20,0.90,0.70,1.16
9.242,0.07,0.87,0.61,1.07
9.252,0.22,0.85,0.51,1.02
9.262,0.33,0.92,0.46,1.08
9.272,0.28,1.01,0.43,1.13
9.282,0.08,1.17,0.55,1.29
9.292,-0.08,1.29,0.56,1.41
9.302,-0.27,1.25,0.37,1.33
9.312,-0.47,1.07,0.18,1.18
9.322,-0.62,0.90,-0.06,1.09
9.332,-0.66,0.81,-0.25,1.07
9.343,-0.52,0.79,-0.22,0.97
9.353,-0.45,0.76,-0.14,0.90
9.363,-0.46,0.61,-0.07,0.77
9.373,-0.55,0.57,-0.05,0.79
9.383,-0.46,0.77,-0.05,0.90
9.393,-0.31,0.92,-0.07,0.98
9.403,-0.18,0.97,-0.06,0.99
9.413,-0.05,1.02,-0.18,1.04
9.423,0.05,1.11,-0.29,1.15
9.433,0.06,1.27,-0.35,1.32
9.443,0.05,1.41,-0.37,1.46
9.453,-0.02,1.46,-0.41,1.52
9.463,-0.13,1.37,-0.45,1.45
9.473,-0.34,1.17,-0.51,1.32
9.483,-0.62,1.01,-0.58,1.32
9.493,-0.85,0.91,-0.58,1.37
9.503,-0.97,0.85,-0.57,1.41
9.513,-1.02,0.83,-0.59,1.44
9.523,-0.93,0.84,-0.53,1.36
9.534,-0.82,0.95,-0.50,1.35
9.544,-0.75,1.07,-0.41,1.37
9.554,-0.61,1.14,-0.42,1.36
9.564,-0.49,1.21,-0.48,1.39
9.574,-0.37,1.19,-0.42,1.32
9.584,-0.29,1.11,-0.40,1.21
9.594,-0.26,0.98,-0.43,1.10
9.604,-0.24,0.88,-0.36,0.98
9.614,-0.21,0.86,-0.36,0.95
9.624,-0.25,0.82,-0.29,0.90
9.634,-0.32,0.69,-0.26,0.80
9.644,-0.40,0.53,-0.30,0.73
9.654,-0.47,0.41,-0.30,0.69
9.664,-0.44,0.34,-0.35,0.66
9.674,-0.39,0.34,-0.36,0.63
9.684,-0.34,0.30,-0.26,0.52
9.695,-0.24,0.20,-0.14,0.34
9.704,-0.23,0.09,-0.07,0.25
9.715,-0.18,0.01,-0.09,0.20
9.725,-0.17,-0.05,-0.02,0.17
9.735,-0.21,-0.12,0.00,0.24
9.745,-0.22,-0.17,-0.01,0.28
9.755,-0.17,-0.21,0.06,0.28
9.765,-0.13,-0.29,0.11,0.33
9.775,-0.08,-0.37,0.09,0.39
9.785,-0.05,-0.44,0.07,0.45
9.795,-0.04,-0.49,0.09,0.50
9.805,-0.03,-0.54,0.16,0.57
9.815,-0.05,-0.59,0.18,0.62
9.825,-0.02,-0.63,0.20,0.66
9.835,-0.00,-0.64,0.24,0.68
9.845,0.03,-0.61,0.25,0.66
9.855,0.09,-0.56,0.23,0.62
9.866,0.09,-0.53,0.24,0.59
9.875,0.05,-0.53,0.24,0.58
9.885,0.04,-0.56,0.21,0.59
9.895,0.05,-0.59,0.13,0.61
9.906,0.04,-0.60,0.10,0.61
9.916,0.11,-0.58,0.10,0.60
9.926,0.18,-0.58,0.10,0.62
9.936,0.11,-0.60,0.12,0.62
9.946,0.05,-0.62,0.13,0.64
9.956,-0.01,-0.72,0.07,0.72
9.966,-0.09,-0.83,0.02,0.84
9.976,-0.20,-0.87,0.03,0.90
9.986,-0.19,-0.93,-0.02,0.95
9.996,0.08,-0.98,0.02,0.99
10.006,0.07,-0.97,0.08,0.98
10.016,0.14,-1.03,-0.03,1.04
10.026,0.13,-1.09,-0.10,1.10
10.036,0.07,-1.10,-0.12,1.11
10.046,0.10,-1.05,-0.08,1.06
10.056,0.12,-1.09,-0.21,1.12
10.067,0.07,-1.32,-0.25,1.34
10.077,0.03,-1.45,-0.19,1.46
10.087,0.18,-1.45,-0.22,1.48
10.097,0.29,-1.33,-0.22,1.38
10.107,0.35,-1.20,-0.33,1.29
10.117,0.34,-1.10,-0.46,1.24
10.127,0.23,-1.07,-0.57,1.24
10.137,0.18,-1.14,-0.59,1.30
10.147,0.23,-1.32,-0.60,1.47
10.157,0.29,-1.58,-0.57,1.70
10.167,0.34,-1.72,-0.51,1.83
10.177,0.31,-1.77,-0.48,1.86
10.187,0.25,-1.76,-0.52,1.86
10.197,0.22,-1.72,-0.60,1.83
10.207,0.16,-1.63,-0.69,1.77
10.217,0.12,-1.50,-0.70,1.66
10.228,-0.04,-1.33,-0.71,1.51
10.237,-0.15,-1.20,-0.69,1.39
10.248,-0.24,-1.11,-0.64,1.31
10.258,-0.36,-0.98,-0.53,1.17
10.268,-0.35,-0.85,-0.44,1.02
10.278,-0.42,-0.78,-0.50,1.01
10.288,-0.65,-0.80,-0.49,1.14
10.298,-0.65,-0.86,-0.36,1.14
10.308,-0.63,-0.94,-0.21,1.15
10.318,-0.49,-0.98,-0.21,1.12
10.328,-0.38,-0.98,-0.31,1.09
10.338,-0.33,-0.98,-0.36,1.10
10.348,-0.23,-0.97,-0.37,1.07
10.358,-0.11,-0.98,-0.39,1.06
10.368,0.01,-0.93,-0.44,1.03
10.378,0.02,-0.76,-0.55,0.94
10.388,-0.09,-0.45,-0.57,0.73
10.399,-0.23,-0.12,-0.51,0.57
10.408,-0.47,0.16,-0.48,0.70
10.419,-0.76,0.41,-0.39,0.95
10.429,-0.86,0.56,-0.25,1.06
10.439,-0.85,0.64,-0.23,1.09
10.449,-0.76,0.64,-0.21,1.02
10.459,-0.58,0.58,-0.20,0.85
10.469,-0.43,0.39,-0.17,0.60
10.479,-0.25,0.17,-0.12,0.33
10.489,-0.05,-0.07,-0.04,0.09
10.499,0.13,-0.20,-0.02,0.24
10.509,0.24,-0.28,-0.06,0.38
10.519,0.30,-0.33,-0.08,0.45
10.529,0.31,-0.31,-0.05,0.44
10.539,0.24,-0.21,-0.04,0.32
10.549,0.16,-0.11,-0.10,0.22
10.559,0.03,-0.02,-0.15,0.15
10.569,-0.10,0.01,-0.15,0.17
10.579,-0.21,-0.02,-0.15,0.26
10.590,-0.41,-0.10,-0.14,0.45
10.600,-0.58,-0.12,-0.05,0.59
10.610,-0.57,-0.08,0.03,0.58
10.620,-0.42,-0.05,0.11,0.43
10.630,-0.32,0.02,0.13,0.35
10.640,-0.21,0.17,0.02,0.27
10.650,0.13,0.23,-0.15,0.31
10.660,0.38,0.13,-0.21,0.46
10.670,0.50,-0.10,-0.20,0.55
10.680,0.54,-0.29,-0.22,0.65
10.690,0.36,-0.37,-0.14,0.53
10.700,0.11,-0.34,-0.05,0.36
10.710,-0.10,-0.25,-0.06,0.28
10.720,-0.28,-0.06,-0.05,0.29
10.730,-0.33,0.21,-0.04,0.39
10.740,-0.20,0.42,-0.07,0.47
10.751,-0.02,0.47,-0.12,0.49
10.760,0.16,0.40,-0.16,0.46
10.771,0.27,0.28,-0.18,0.43
10.781,0.32,0.11,-0.12,0.36
10.791,0.28,-0.08,0.03,0.30
10.801,0.28,-0.24,0.22,0.42
10.811,0.34,-0.32,0.31,0.56
10.821,0.46,-0.25,0.24,0.58
10.831,0.53,-0.02,0.05,0.54
10.841,0.47,0.18,-0.13,0.52
10.851,0.39,0.26,-0.22,0.51
10.861,0.31,0.27,-0.22,0.46
10.871,0.17,0.23,-0.18,0.34
10.881,0.07,0.17,-0.16,0.24
10.891,-0.03,0.06,-0.13,0.15
10.901,-0.07,-0.08,-0.07,0.13
10.911,-0.05,-0.21,-0.02,0.21
10.921,0.00,-0.27,0.03,0.27
10.932,0.11,-0.25,0.04,0.28
10.941,0.19,-0.20,-0.03,0.27
10.952,0.25,-0.12,-0.23,0.36
10.962,0.22,-0.06,-0.31,0.39
10.972,0.19,-0.06,-0.36,0.41
10.982,0.10,-0.09,-0.36,0.39
10.992,-0.00,-0.14,-0.28,0.32
11.002,-0.12,-0.18,-0.22,0.31
11.012,-0.18,-0.16,-0.19,0.31
11.022,-0.17,-0.06,-0.09,0.20
11.032,-0.11,0.07,0.03,0.13
11.042,-0.01,0.18,0.12,0.22
11.052,0.12,0.23,0.05,0.27
11.062,0.19,0.26,-0.06,0.33
11.072,0.22,0.27,-0.16,0.38
11.082,0.16,0.21,-0.27,0.38
11.092,0.02,0.11,-0.32,0.34
11.103,-0.13,0.00,-0.27,0.30
11.112,-0.18,-0.12,-0.18,0.28
11.123,-0.15,-0.25,-0.15,0.33
11.133,-0.15,-0.31,-0.10,0.36
11.143,-0.09,-0.19,-0.10,0.24
11.153,0.01,0.03,-0.14,0.15
11.163,0.10,0.14,-0.13,0.21
11.173,0.16,0.17,-0.09,0.25
11.183,0.12,0.17,-0.01,0.20
11.193,0.06,0.10,0.09,0.15
11.203,0.05,-0.05,0.13,0.15
11.213,0.01,-0.17,0.11,0.20
11.223,0.03,-0.16,0.11,0.19
11.233,0.05,-0.09,0.03,0.11
11.243,0.04,0.02,-0.06,0.07
11.253,0.02,0.14,-0.13,0.19
11.263,-0.03,0.24,-0.17,0.30
11.273,-0.06,0.26,-0.21,0.34
11.283,-0.13,0.21,-0.22,0.33
11.293,-0.14,0.10,-0.15,0.23
11.303,-0.11,0.02,-0.07,0.13
11.314,0.03,-0.06,-0.05,0.08
11.324,0.08,-0.15,-0.02,0.17
11.334,0.11,-0.16,-0.02,0.19
11.344,0.11,-0.12,0.01,0.16
11.354,0.10,-0.06,0.01,0.12
11.364,0.14,-0.07,0.00,0.16
11.374,0.13,-0.12,0.00,0.18
11.384,0.11,-0.11,-0.03,0.16
11.394,0.04,-0.07,-0.06,0.10
11.404,-0.01,-0.05,-0.09,0.10
11.414,-0.08,-0.03,-0.10,0.13
11.424,-0.15,0.03,-0.08,0.17
11.434,-0.15,0.08,-0.03,0.17
11.444,-0.12,0.08,0.06,0.15
11.454,-0.04,0.06,0.13,0.15
11.464,0.05,0.02,0.18,0.19
11.475,0.10,-0.01,0.17,0.20
11.485,0.10,-0.07,0.13,0.18
11.495,0.12,-0.11,0.11,0.20
11.505,0.15,-0.12,0.05,0.20
11.515,0.16,-0.09,0.02,0.18
11.525,0.12,-0.06,0.07,0.15
11.535,0.08,-0.00,0.11,0.13
11.545,0.05,0.04,0.08,0.10
11.555,0.03,0.06,0.02,0.07
11.565,0.02,0.01,0.03,0.04
11.575,0.05,-0.06,0.08,0.12
11.585,0.06,-0.10,0.09,0.14
11.595,0.05,-0.10,0.05,0.12
11.605,0.04,-0.08,-0.02,0.09
11.615,0.04,-0.07,-0.02,0.08
11.625,0.03,-0.04,-0.00,0.05
11.635,0.05,0.01,0.07,0.09
11.646,0.07,0.05,0.16,0.18
11.655,0.11,0.08,0.08,0.16
11.666,0.13,0.06,-0.01,0.14
11.676,0.15,0.01,-0.03,0.15
11.686,0.10,-0.04,-0.02,0.10
11.696,0.04,-0.08,0.03,0.09
11.706,0.02,-0.08,0.04,0.09
11.716,0.04,-0.09,0.04,0.11
11.726,0.05,-0.10,0.05,0.12
11.736,0.07,-0.10,0.01,0.12
11.746,0.05,-0.08,-0.03,0.09
11.756,0.02,-0.06,-0.03,0.06
11.766,0.03,-0.04,-0.00,0.05
11.776,0.04,-0.04,0.01,0.06
11.786,0.06,-0.03,-0.04,0.07
11.796,0.05,-0.03,-0.02,0.07
11.806,0.07,-0.03,-0.00,0.08
11.817,0.05,-0.02,-0.02,0.06
11.826,0.00,-0.02,-0.03,0.03
11.837,-0.03,0.01,-0.02,0.03
11.846,-0.02,0.04,-0.00,0.04
11.857,-0.05,0.04,-0.01,0.06
11.867,-0.08,0.01,-0.02,0.09
11.877,-0.09,-0.04,0.01,0.10
11.887,-0.07,-0.08,0.04,0.11
11.897,-0.07,-0.09,0.04,0.12
11.907,-0.03,-0.07,0.05,0.09
11.917,0.01,-0.06,0.11,0.12
11.927,0.05,-0.03,0.13,0.14
11.937,0.05,-0.01,0.12,0.13
11.947,0.01,-0.01,0.10,0.10
11.957,0.01,-0.04,0.09,0.09
11.967,-0.01,-0.06,0.10,0.11
11.977,-0.06,-0.08,0.07,0.12
11.987,-0.09,-0.08,0.03,0.12
11.998,-0.10,-0.03,0.04,0.12
12.007,-0.05,0.01,0.04,0.06
12.018,-0.02,0.01,0.05,0.05
12.028,0.02,0.02,0.08,0.08
12.038,0.05,-0.03,0.09,0.11
12.048,0.08,-0.06,0.09,0.13
12.058,0.04,-0.04,0.05,0.08
12.068,-0.02,-0.04,0.01,0.05
12.078,-0.07,-0.05,0.01,0.09
12.088,-0.10,-0.05,0.00,0.11
12.098,-0.06,-0.04,0.01,0.08
12.108,-0.04,-0.02,0.00,0.05
12.118,-0.05,0.01,0.02,0.05
12.128,-0.01,0.01,0.04,0.04
12.138,0.03,-0.01,0.08,0.08
12.148,0.09,-0.02,0.07,0.12
12.158,0.10,-0.05,0.05,0.12
12.168,0.08,-0.07,0.08,0.13
12.179,0.07,-0.06,0.09,0.12
12.188,0.04,-0.03,0.05,0.07
12.199,0.01,-0.03,0.02,0.04
12.209,-0.01,-0.01,0.00,0.02
12.219,-0.02,-0.01,0.01,0.02
12.229,0.01,-0.01,-0.01,0.02
12.239,0.02,0.01,-0.00,0.02
12.249,0.02,0.03,0.00,0.04
12.259,-0.00,0.04,0.00,0.04
12.269,0.00,-0.01,0.03,0.03
12.279,0.01,-0.03,-0.04,0.05
12.289,0.03,-0.04,-0.07,0.09
12.299,0.04,-0.02,-0.09,0.10
12.309,0.03,-0.00,-0.08,0.08
12.319,0.01,-0.01,-0.06,0.06
12.329,-0.00,-0.02,-0.07,0.07
12.339,0.01,-0.04,-0.05,0.06
12.349,0.01,-0.04,-0.07,0.08
12.359,0.00,-0.04,-0.09,0.10
12.369,-0.01,-0.06,-0.06,0.08
12.379,-0.01,-0.06,-0.06,0.09
12.390,-0.00,-0.07,-0.05,0.08
12.400,0.01,-0.06,-0.02,0.07
12.410,0.04,-0.04,-0.03,0.06
12.420,0.04,-0.03,-0.05,0.07
12.430,0.02,-0.01,-0.02,0.03
12.440,-0.00,-0.01,-0.01,0.01
12.450,0.03,-0.03,-0.02,0.05
12.460,0.06,-0.00,-0.06,0.08
12.470,0.07,0.02,-0.08,0.11
12.480,0.06,0.04,-0.06,0.09
12.490,0.07,0.03,-0.01,0.07
12.500,0.06,0.00,0.06,0.08
12.510,0.06,-0.02,0.08,0.11
12.520,0.07,-0.03,0.07,0.10
12.530,0.06,-0.03,0.04,0.08
12.540,0.08,-0.02,0.05,0.09
12.550,0.10,-0.03,0.04,0.11
12.561,0.15,0.01,-0.01,0.15
12.571,0.14,0.01,-0.04,0.15
12.581,0.12,-0.04,-0.01,0.13
12.591,0.11,-0.09,0.02,0.15
12.601,0.10,-0.11,0.06,0.16
12.611,0.09,-0.09,0.04,0.13
12.621,0.08,-0.06,0.01,0.10
12.631,0.07,-0.02,0.00,0.07
12.641,0.07,-0.01,0.01,0.07
12.651,0.08,-0.02,0.04,0.09
12.661,0.07,0.01,0.08,0.11
12.671,0.09,0.02,0.10,0.14
12.681,0.07,0.01,0.07,0.09
12.691,0.07,0.01,0.04,0.08
12.702,0.08,-0.01,0.04,0.09
12.711,0.08,-0.04,0.04,0.10
12.721,0.11,-0.04,0.07,0.14
12.732,0.14,-0.04,0.09,0.17
12.742,0.15,-0.02,0.05,0.16
12.752,0.15,-0.04,0.04,0.16
12.762,0.14,-0.08,0.04,0.16
12.772,0.11,-0.05,0.06,0.13
12.782,0.07,-0.04,0.06,0.10
12.792,0.06,-0.03,0.03,0.07
12.802,0.05,-0.04,0.04,0.08
12.812,0.08,-0.04,0.09,0.12
12.822,0.08,-0.03,0.08,0.12
12.832,0.09,-0.02,0.02,0.09
12.842,0.07,-0.02,0.00,0.07
12.852,0.04,-0.02,-0.02,0.05
12.862,0.03,-0.01,-0.04,0.05
12.872,0.01,-0.00,-0.05,0.05
12.883,0.01,-0.01,-0.06,0.07
12.892,-0.01,-0.00,-0.04,0.04
12.902,-0.05,-0.01,-0.01,0.05
12.912,-0.07,-0.02,0.03,0.08
12.923,-0.07,-0.03,0.09,0.12
12.933,-0.06,-0.02,0.13,0.15
12.943,-0.04,-0.06,0.15,0.16
12.953,0.07,-0.09,0.14,0.18
12.963,0.15,-0.10,0.11,0.21
12.973,0.18,-0.10,0.05,0.21
12.983,0.14,-0.08,0.01,0.17
12.993,0.09,-0.08,0.00,0.12
13.003,0.05,-0.06,0.00,0.08
13.013,0.01,-0.03,0.03,0.04
13.023,0.02,0.06,0.04,0.08
13.033,0.04,0.13,0.03,0.14
13.043,0.04,0.14,-0.01,0.15
13.053,0.01,0.15,-0.05,0.15
13.063,-0.01,0.12,-0.06,0.13
13.073,-0.01,0.11,-0.06,0.13
13.084,-0.00,0.06,-0.08,0.10
13.094,-0.03,-0.01,-0.11,0.11
13.104,-0.07,-0.08,-0.09,0.14
13.114,-0.10,-0.15,-0.05,0.18
13.124,-0.11,-0.21,-0.02,0.24
13.134,-0.12,-0.21,-0.01,0.24
13.144,-0.12,-0.16,-0.00,0.20
13.154,-0.07,-0.11,0.00,0.13
13.164,-0.03,-0.07,-0.00,0.07
13.174,0.00,0.00,-0.02,0.02
13.184,0.03,0.00,-0.08,0.08
13.194,0.07,0.01,-0.08,0.11
13.204,0.07,-0.01,-0.05,0.08
13.214,0.06,-0.02,0.01,0.07
13.224,0.06,-0.04,0.05,0.09
13.234,0.08,-0.03,0.09,0.13
13.244,0.05,-0.02,0.06,0.08
13.254,0.01,0.03,0.01,0.03
13.265,-0.03,0.05,-0.03,0.07
13.274,-0.08,0.06,-0.06,0.11
13.285,-0.08,0.03,-0.10,0.13
13.295,-0.09,-0.01,-0.08,0.12
13.305,-0.07,-0.03,-0.01,0.08
13.315,-0.04,-0.05,0.04,0.08
13.325,-0.00,-0.07,0.09,0.12
13.335,0.04,-0.08,0.12,0.14
13.345,0.09,-0.09,0.08,0.15
13.355,0.11,-0.06,0.03,0.13
13.365,0.12,-0.02,0.01,0.12
13.375,0.11,0.02,0.01,0.11
13.385,0.07,0.05,0.00,0.08
13.395,0.03,0.04,0.01,0.05
13.405,0.02,0.01,-0.00,0.02
13.415,0.01,0.01,-0.02,0.03
13.425,0.02,-0.00,-0.01,0.02
13.435,0.02,-0.00,0.00,0.02
13.445,0.01,-0.01,-0.01,0.02
13.455,0.03,-0.03,-0.00,0.04
13.466,0.05,-0.02,-0.01,0.05
13.476,0.04,-0.04,-0.00,0.06
13.486,-0.00,-0.03,0.00,0.03
13.496,0.00,-0.04,0.00,0.04
13.506,0.02,-0.01,0.02,0.03
13.516,0.04,-0.03,0.03,0.06
13.526,0.08,-0.07,0.00,0.11
13.536,0.11,-0.13,0.00,0.17
13.546,0.05,-0.12,-0.01,0.13
13.556,-0.01,-0.09,0.02,0.09
13.566,-0.01,-0.07,0.04,0.08
13.576,-0.03,-0.01,-0.03,0.04
13.586,-0.05,0.07,-0.05,0.10
13.596,-0.05,0.12,-0.04,0.13
13.606,-0.05,0.11,-0.05,0.13
13.617,-0.01,0.07,-0.03,0.07
13.627,0.06,0.02,-0.01,0.07
13.637,0.10,-0.00,-0.03,0.10
13.647,0.07,-0.02,0.02,0.08
13.657,0.04,-0.06,0.03,0.08
13.667,0.01,-0.09,0.01,0.09
13.677,-0.01,-0.06,-0.05,0.07
13.687,-0.06,-0.04,-0.07,0.10
13.697,-0.07,-0.03,-0.06,0.10
13.707,-0.07,-0.01,-0.08,0.11
13.717,-0.06,-0.00,-0.07,0.10
13.727,-0.05,0.00,-0.04,0.07
13.737,-0.07,-0.01,-0.04,0.08
13.747,-0.09,-0.05,-0.07,0.13
13.757,-0.11,-0.07,-0.06,0.14
13.767,-0.10,-0.10,-0.03,0.14
13.777,-0.09,-0.11,-0.07,0.16
13.788,-0.08,-0.12,-0.11,0.18
13.798,-0.07,-0.09,-0.09,0.14
13.808,-0.03,-0.04,-0.06,0.08
13.818,0.00,0.02,-0.05,0.06
13.828,0.01,0.07,-0.08,0.11
13.838,0.02,0.10,-0.07,0.13
13.848,0.01,0.09,-0.05,0.10
13.858,0.04,0.04,-0.01,0.06
13.868,0.04,-0.04,-0.02,0.06
13.878,0.01,-0.09,-0.02,0.09
13.888,0.00,-0.12,-0.00,0.12
13.898,-0.00,-0.10,0.02,0.11
13.908,0.02,-0.07,0.01,0.08
13.918,0.02,-0.04,-0.03,0.06
13.928,0.02,0.01,-0.08,0.08
13.938,0.02,0.06,-0.08,0.10
13.948,0.03,0.10,-0.09,0.14
13.958,0.03,0.10,-0.12,0.16
13.968,0.05,0.06,-0.09,0.12
13.979,0.06,0.01,-0.06,0.09
13.988,0.06,-0.03,-0.04,0.08
13.999,0.03,-0.06,-0.02,0.07
14.009,0.01,-0.10,0.01,0.10
14.019,0.00,-0.10,0.04,0.11
14.029,0.01,-0.07,0.07,0.10
14.039,0.03,0.00,0.05,0.06
14.049,0.04,0.03,0.02,0.06
14.059,0.07,-0.01,-0.01,0.08
14.069,0.10,-0.04,-0.00,0.11
14.079,0.14,-0.03,0.00,0.14
14.089,0.15,-0.03,0.01,0.15
14.099,0.14,-0.02,-0.01,0.14
14.109,0.09,-0.02,-0.01,0.09
14.119,0.05,0.01,-0.01,0.05
14.129,0.04,-0.00,-0.02,0.04
14.139,-0.00,0.01,-0.01,0.01
14.150,-0.01,0.05,-0.01,0.05
14.159,0.01,0.05,-0.02,0.06
14.170,0.01,0.06,-0.05,0.08
14.180,0.03,0.04,-0.03,0.06
14.190,0.04,0.02,-0.00,0.04
14.200,0.04,-0.01,0.00,0.04
14.210,0.05,-0.06,-0.01,0.07
14.220,0.06,-0.07,-0.01,0.09
14.230,0.07,-0.10,-0.00,0.12
14.240,0.03,-0.12,0.00,0.12
14.250,0.04,-0.11,0.03,0.12
14.260,0.07,-0.08,0.04,0.11
14.270,0.08,-0.05,0.02,0.10
14.280,0.05,-0.02,0.01,0.06
14.290,0.01,0.02,-0.01,0.02
14.300,-0.03,0.02,-0.01,0.04
14.310,-0.01,-0.00,-0.01,0.02
14.320,-0.01,0.01,-0.05,0.05
14.331,-0.03,0.06,-0.14,0.16
14.340,-0.04,0.08,-0.17,0.19
14.351,-0.06,0.06,-0.19,0.21
14.361,-0.08,0.01,-0.18,0.20
14.371,-0.16,-0.06,-0.10,0.20
14.381,-0.21,-0.10,-0.02,0.23
14.391,-0.19,-0.10,0.06,0.23
14.401,-0.09,-0.05,0.10,0.15
14.411,0.03,0.01,0.08,0.09
14.421,0.10,0.05,0.04,0.12
14.431,0.14,0.06,0.00,0.15
14.441,0.13,0.03,0.00,0.13
14.451,0.09,-0.06,0.00,0.11
14.461,0.04,-0.14,0.01,0.15
14.471,-0.03,-0.20,0.01,0.20
14.481,-0.06,-0.19,-0.00,0.20
14.491,-0.08,-0.14,0.01,0.16
14.501,-0.07,-0.05,0.03,0.09
14.511,-0.01,0.02,0.03,0.04
14.521,0.04,0.05,0.04,0.08
14.532,0.08,0.08,0.04,0.12
14.542,0.08,0.10,0.03,0.13
14.552,0.06,0.07,0.06,0.11
14.562,0.06,0.04,0.07,0.10
14.572,0.07,-0.00,0.03,0.08
14.582,0.08,-0.08,-0.00,0.11
14.592,0.10,-0.13,0.01,0.17
14.602,0.13,-0.11,-0.01,0.17
14.612,0.11,-0.06,-0.02,0.13
14.622,0.08,-0.05,-0.02,0.10
14.632,0.06,-0.01,-0.01,0.07
14.642,0.05,0.01,0.02,0.05
14.652,0.04,0.01,0.05,0.06
14.662,0.08,0.00,0.06,0.10
14.672,0.11,0.01,0.03,0.12
14.683,0.14,0.02,0.01,0.14
14.692,0.16,0.01,-0.02,0.16
14.702,0.13,0.02,-0.02,0.13
14.713,0.11,0.04,0.01,0.12
14.723,0.11,0.02,0.02,0.11
14.733,0.07,-0.02,0.03,0.08
14.743,0.06,-0.04,0.02,0.07
14.753,0.04,-0.07,-0.00,0.08
14.763,0.04,-0.06,0.00,0.08
14.773,0.10,-0.08,0.02,0.12
14.783,0.15,-0.07,0.02,0.17
14.793,0.17,-0.06,0.02,0.18
14.803,0.15,-0.04,0.03,0.16
14.813,0.11,-0.05,0.03,0.13
14.823,0.09,-0.05,0.03,0.11
14.833,0.09,-0.05,-0.01,0.10
14.843,0.09,0.01,-0.05,0.11
14.853,0.08,0.03,-0.05,0.10
14.863,0.05,0.03,-0.03,0.06
14.873,0.03,0.00,-0.00,0.03
14.884,0.05,-0.02,0.02,0.06
14.894,0.07,-0.03,0.01,0.08
14.904,0.07,-0.03,0.01,0.08
14.914,0.06,-0.04,0.04,0.08
14.924,0.09,-0.03,0.08,0.13
14.934,0.13,-0.02,0.08,0.15
14.944,0.10,-0.01,0.03,0.11
14.954,0.08,-0.00,-0.01,0.08
14.964,0.05,0.00,-0.02,0.05
14.974,0.02,-0.00,-0.05,0.05
14.984,-0.01,-0.01,-0.08,0.08
14.994,-0.05,-0.03,-0.06,0.08
15.004,-0.05,-0.03,-0.04,0.07
15.014,-0.03,-0.03,-0.03,0.05
15.024,0.00,-0.04,0.00,0.04
15.035,0.06,-0.02,0.01,0.06
15.044,0.07,-0.02,0.01,0.07
15.055,0.05,-0.04,0.04,0.07
15.065,0.04,-0.04,0.04,0.07
15.075,0.03,-0.03,0.03,0.05
15.085,0.03,-0.01,0.04,0.05
15.095,0.04,0.00,0.02,0.05
15.105,0.05,-0.01,0.01,0.05
15.115,0.05,-0.02,0.01,0.06
15.125,0.05,-0.06,0.00,0.08
15.135,0.03,-0.07,0.03,0.08
15.145,0.05,-0.09,0.05,0.11
15.155,0.08,-0.06,0.04,0.11
15.165,0.08,0.00,0.01,0.08
15.175,0.06,0.05,-0.00,0.08
15.185,0.02,0.06,0.01,0.06
15.195,-0.00,0.05,-0.00,0.05
15.205,-0.02,0.02,-0.01,0.03
15.216,-0.00,-0.02,0.01,0.02
15.225,0.03,-0.05,0.01,0.05
15.236,0.05,-0.04,0.04,0.08
15.246,0.08,-0.06,0.04,0.11
15.256,0.08,-0.06,0.01,0.10
15.266,0.06,-0.05,0.03,0.08
15.276,0.05,-0.03,0.05,0.08
15.286,0.00,-0.02,0.01,0.02
15.296,-0.03,-0.01,-0.05,0.06
15.306,-0.05,-0.00,-0.07,0.09
15.316,-0.06,-0.01,-0.01,0.06
15.326,-0.05,-0.04,0.02,0.07
15.336,-0.04,-0.03,0.04,0.06
15.346,-0.00,-0.05,0.04,0.06
15.356,0.01,-0.06,-0.01,0.07
15.366,0.03,-0.07,0.00,0.08
15.376,0.04,-0.04,0.04,0.07
15.386,0.08,-0.01,0.07,0.11
15.397,0.08,0.00,0.06,0.10
15.406,0.09,-0.00,0.03,0.09
15.417,0.08,0.01,0.01,0.08
15.427,0.07,0.02,-0.04,0.08
15.437,0.04,0.02,-0.03,0.06
15.447,0.01,-0.00,0.01,0.02
15.457,0.01,0.00,0.03,0.03
15.467,-0.02,-0.00,0.01,0.02
15.477,-0.06,0.00,-0.06,0.09
15.487,-0.11,-0.01,-0.10,0.15
15.497,-0.14,0.02,-0.10,0.18
15.507,-0.14,0.02,-0.02,0.15
15.517,-0.07,-0.03,0.03,0.08
15.527,-0.02,-0.06,0.00,0.06
15.537,-0.02,-0.07,-0.01,0.07
15.547,-0.03,-0.07,-0.02,0.07
15.557,-0.00,-0.07,-0.04,0.08
15.567,0.01,-0.04,-0.05,0.07
15.577,-0.03,-0.02,-0.05,0.07
15.587,-0.06,-0.03,-0.05,0.08
15.598,-0.10,-0.02,0.00,0.11
15.608,-0.11,-0.03,0.04,0.12
15.618,-0.08,-0.04,0.05,0.10
15.628,-0.03,-0.02,0.01,0.03
15.638,0.01,-0.00,0.02,0.02
15.648,0.05,0.01,-0.00,0.05
15.658,0.05,0.01,-0.02,0.05
15.668,0.03,0.03,-0.01,0.04
15.678,0.01,0.01,0.01,0.02
15.688,0.01,-0.02,0.05,0.06
15.698,-0.02,-0.05,0.07,0.09
15.708,0.01,-0.06,0.05,0.08
15.718,0.04,-0.04,-0.01,0.05
15.728,0.04,-0.02,-0.02,0.05
15.738,0.03,0.00,0.02,0.04
15.749,0.03,-0.01,0.03,0.05
15.758,0.07,-0.03,0.03,0.09
15.768,0.09,-0.07,0.02,0.11
15.779,0.06,-0.07,-0.01,0.09
15.789,0.02,-0.06,-0.00,0.06
15.799,0.01,-0.03,0.03,0.05
15.809,0.01,-0.03,0.04,0.05
15.819,0.03,-0.04,0.01,0.05
15.829,0.03,-0.05,0.01,0.06
15.839,0.02,-0.06,-0.01,0.07
15.849,-0.00,-0.04,0.02,0.04
15.859,0.02,-0.04,0.01,0.05
15.869,0.01,-0.02,-0.04,0.04
15.879,-0.04,0.00,-0.02,0.05
15.889,-0.08,0.01,-0.01,0.08
15.899,-0.09,0.01,-0.04,0.09
15.909,-0.10,0.01,-0.01,0.10
15.919,-0.07,-0.01,0.02,0.07
15.929,-0.02,-0.01,0.03,0.04
15.939,0.03,0.01,0.02,0.03
15.950,0.06,0.03,-0.02,0.07
15.960,0.07,0.01,-0.05,0.08
15.970,0.06,-0.03,-0.04,0.07
15.980,0.06,-0.05,-0.01,0.08
15.990,0.02,-0.08,0.01,0.09
16.000,-0.00,-0.11,0.05,0.12
16.010,0.02,-0.12,0.08,0.15
16.020,0.04,-0.11,0.06,0.13
16.030,0.06,-0.08,0.05,0.11
16.040,0.06,-0.04,0.04,0.08
16.050,0.09,-0.03,0.02,0.09
16.060,0.06,0.01,0.02,0.06
16.070,0.05,0.00,0.05,0.07
16.080,0.05,-0.02,0.09,0.11
16.090,0.03,-0.02,0.12,0.12
16.100,0.05,-0.04,0.13,0.14
16.110,0.08,-0.03,0.12,0.14
16.121,0.10,-0.03,0.08,0.13
16.131,0.12,-0.02,0.02,0.12
16.141,0.14,-0.02,-0.03,0.14
16.151,0.13,-0.04,-0.07,0.15
16.161,0.07,-0.03,-0.07,0.10
16.171,0.02,-0.03,-0.04,0.05
16.181,-0.01,-0.05,0.03,0.06
16.191,-0.06,-0.07,0.05,0.11
16.201,-0.06,-0.05,0.05,0.09
16.211,-0.05,-0.02,0.03,0.06
16.221,-0.01,0.02,-0.02,0.03
16.231,0.04,0.07,-0.10,0.13
16.241,0.05,0.06,-0.11,0.13
16.251,0.06,0.04,-0.06,0.09
16.261,0.06,-0.00,0.00,0.06
16.271,0.04,-0.03,0.07,0.08
16.281,0.04,-0.03,0.06,0.07
16.291,0.02,-0.04,0.02,0.05
16.302,0.00,-0.04,-0.01,0.04
16.312,-0.02,-0.05,-0.01,0.05
16.322,-0.05,-0.05,0.01,0.07
16.332,-0.01,-0.06,0.01,0.06
16.342,0.03,-0.06,0.02,0.07
16.352,0.05,-0.04,-0.03,0.07
16.362,0.03,-0.00,-0.04,0.05
16.372,0.00,-0.01,-0.01,0.01
16.382,-0.00,-0.01,0.02,0.03
16.392,0.02,-0.01,0.01,0.03
16.402,0.02,0.01,-0.02,0.03
16.412,0.01,0.02,-0.07,0.07
16.422,0.01,-0.02,-0.09,0.10
16.432,-0.01,-0.02,-0.10,0.10
16.442,-0.06,-0.01,-0.07,0.09
16.452,-0.08,0.00,-0.00,0.08
16.462,-0.08,0.01,0.03,0.09
16.472,-0.06,0.00,0.02,0.06
16.483,-0.02,0.00,-0.03,0.03
16.492,0.00,0.01,-0.10,0.10
16.503,-0.01,-0.00,-0.11,0.11
16.513,-0.00,-0.02,-0.08,0.08
16.523,-0.01,-0.03,0.01,0.03
16.533,0.03,-0.02,-0.02,0.04
16.543,0.02,-0.03,-0.10,0.10
16.553,-0.02,-0.01,-0.15,0.15
16.563,-0.08,-0.01,-0.10,0.13
16.573,-0.09,-0.02,-0.03,0.10
16.583,-0.04,-0.04,0.04,0.07
16.593,0.02,-0.02,0.05,0.05
16.603,0.06,0.03,0.03,0.07
16.613,0.07,0.07,-0.01,0.10
16.623,0.02,0.07,-0.06,0.10
16.633,-0.04,0.05,-0.08,0.10
16.643,-0.03,0.01,-0.05,0.06
16.653,0.01,-0.00,-0.05,0.05
16.664,0.04,0.00,-0.08,0.09
16.673,0.03,0.02,-0.11,0.12
16.684,0.01,0.01,-0.13,0.14
16.694,-0.03,-0.01,-0.15,0.15
16.704,-0.10,0.00,-0.15,0.18
16.714,-0.15,-0.01,-0.12,0.19
16.724,-0.15,-0.01,-0.09,0.18
16.734,-0.12,0.02,-0.14,0.18
16.744,-0.08,0.09,-0.14,0.19
16.754,-0.05,0.10,-0.13,0.18
16.764,-0.05,0.08,-0.10,0.14
16.774,-0.05,0.06,-0.12,0.15
16.784,-0.04,-0.00,-0.14,0.15
16.794,-0.03,-0.05,-0.14,0.15
16.804,-0.01,-0.08,-0.16,0.18
16.814,0.01,-0.08,-0.16,0.18
16.824,0.08,-0.05,-0.16,0.18
16.835,0.09,-0.03,-0.17,0.19
16.845,0.07,-0.00,-0.20,0.21
16.855,0.03,0.04,-0.24,0.24
16.865,-0.02,0.07,-0.26,0.27
16.875,-0.05,0.10,-0.27,0.29
16.885,-0.05,0.10,-0.28,0.30
16.895,-0.03,0.05,-0.24,0.25
16.905,0.03,0.01,-0.18,0.18
16.915,0.10,-0.03,-0.16,0.19
16.925,0.09,0.00,-0.20,0.22
16.935,0.05,0.03,-0.25,0.26
16.945,0.03,0.07,-0.24,0.25
16.955,0.02,0.06,-0.17,0.18
16.965,0.05,0.05,-0.10,0.12
16.975,0.16,0.06,-0.13,0.22
16.985,0.23,0.10,-0.13,0.28
16.995,0.24,0.09,-0.07,0.26
17.005,0.28,0.10,-0.04,0.30
17.015,0.26,0.10,-0.10,0.29
17.026,0.18,0.11,-0.12,0.25
17.036,0.14,0.11,-0.14,0.23
17.046,0.12,0.02,-0.13,0.18
17.056,0.10,-0.04,-0.14,0.17
17.066,0.09,-0.06,-0.13,0.17
17.076,0.06,-0.06,-0.12,0.15
17.086,0.01,-0.07,-0.10,0.12
17.096,0.00,-0.07,-0.10,0.12
17.106,-0.03,-0.12,-0.05,0.14
17.116,-0.04,-0.19,0.05,0.20
17.126,0.01,-0.23,0.14,0.27
17.136,0.11,-0.22,0.23,0.33
17.146,0.22,-0.19,0.28,0.40
17.156,0.33,-0.18,0.26,0.46
17.166,0.39,-0.15,0.26,0.50
17.176,0.45,-0.06,0.27,0.52
17.186,0.41,0.02,0.18,0.45
17.196,0.32,0.09,0.13,0.36
17.207,0.23,0.13,0.14,0.30
17.217,0.10,0.14,0.07,0.19
17.227,-0.00,0.09,0.10,0.14
17.237,-0.05,-0.01,0.12,0.13
17.247,-0.10,-0.09,0.10,0.17
17.257,-0.06,-0.10,0.12,0.16
17.267,-0.00,-0.08,0.13,0.15
17.277,0.00,-0.05,0.13,0.14
17.287,-0.07,-0.10,0.19,0.23
17.297,-0.16,-0.18,0.22,0.33
17.307,-0.19,-0.22,0.25,0.39
17.317,-0.17,-0.23,0.30,0.41
17.327,-0.11,-0.18,0.25,0.32
17.337,-0.04,-0.07,0.11,0.14
17.347,-0.01,0.06,0.03,0.07
17.357,0.01,0.13,-0.04,0.14
17.368,-0.00,0.15,-0.05,0.16
17.377,0.03,0.07,0.00,0.08
17.388,0.07,0.03,0.10,0.13
17.398,0.05,-0.03,0.28,0.29
17.408,0.09,-0.11,0.39,0.41
17.418,0.16,-0.17,0.48,0.53
17.428,0.23,-0.20,0.55,0.63
17.438,0.30,-0.28,0.48,0.63
17.448,0.33,-0.31,0.41,0.61
17.458,0.28,-0.24,0.37,0.52
17.468,0.16,-0.15,0.31,0.38
17.478,0.06,-0.04,0.22,0.24
17.488,-0.05,0.02,0.20,0.21
17.498,-0.16,0.00,0.19,0.25
17.508,-0.21,-0.05,0.19,0.28
17.518,-0.17,-0.10,0.22,0.30
17.528,-0.20,-0.16,0.20,0.32
17.538,-0.14,-0.15,0.23,0.30
17.548,-0.10,-0.14,0.23,0.29
17.558,-0.12,-0.12,0.19,0.26
17.568,-0.15,-0.07,0.15,0.22
17.579,-0.16,-0.02,0.14,0.21
17.589,-0.10,-0.02,0.12,0.16
17.599,0.04,0.05,0.07,0.09
17.609,0.27,0.15,0.08,0.32
17.619,0.19,-0.05,0.11,0.22
17.629,0.06,-0.30,0.19,0.36
17.639,-0.00,-0.25,0.27,0.37
17.649,-0.02,-0.12,0.25,0.28
17.659,-0.02,-0.06,0.20,0.21
17.669,0.03,-0.04,0.12,0.12
17.679,0.05,-0.04,0.02,0.07
17.689,0.02,-0.05,-0.02,0.05
17.699,0.01,-0.05,-0.02,0.06
17.709,-0.03,-0.07,0.00,0.08
17.719,-0.10,-0.05,-0.03,0.12
17.730,-0.13,-0.03,-0.01,0.13
17.740,-0.12,-0.07,0.04,0.15
17.750,-0.10,-0.07,0.01,0.13
17.760,-0.03,0.03,-0.02,0.05
17.770,0.01,0.07,-0.05,0.09
17.780,0.04,0.12,-0.05,0.14
17.790,0.06,0.19,-0.05,0.21
17.800,0.01,0.15,-0.07,0.16
17.810,-0.07,0.04,-0.08,0.12
17.820,-0.05,0.00,-0.07,0.08
17.830,0.00,-0.01,-0.06,0.06
17.840,0.05,-0.10,-0.07,0.13
17.850,0.08,-0.21,-0.09,0.24
17.860,0.09,-0.24,-0.06,0.27
17.870,0.04,-0.29,-0.03,0.30
17.880,0.05,-0.23,0.03,0.24
17.890,0.00,-0.13,0.04,0.13
17.900,-0.07,-0.14,0.03,0.16
17.911,-0.07,-0.09,0.08,0.14
17.921,-0.03,-0.02,-0.04,0.05
17.931,0.08,0.28,-0.15,0.33
17.941,-0.09,0.30,-0.20,0.37
17.951,-0.06,0.11,-0.17,0.21
17.961,-0.02,0.01,-0.08,0.09
17.971,0.03,-0.07,0.01,0.08
17.981,0.00,-0.07,0.06,0.09
17.991,-0.03,-0.07,0.10,0.13
18.001,0.01,-0.04,0.11,0.12
18.011,0.08,0.19,0.08,0.22
