time,ax,ay,az,atotal
0.000,0.04,0.01,0.01,0.05
0.010,0.06,-0.02,-0.05,0.08
0.020,0.05,-0.07,0.01,0.09
0.030,0.07,-0.11,0.07,0.15
0.040,0.08,-0.13,0.04,0.16
0.050,0.11,-0.09,-0.01,0.14
0.060,0.11,-0.02,-0.02,0.12
0.070,0.11,0.02,-0.02,0.12
0.080,0.11,0.02,0.02,0.12
0.091,0.14,0.00,0.09,0.16
0.101,0.12,-0.03,0.07,0.14
0.111,0.09,-0.07,0.06,0.13
0.121,0.08,-0.07,0.04,0.12
0.131,0.06,-0.06,0.01,0.09
0.141,0.03,-0.05,0.04,0.07
0.151,0.02,-0.09,0.10,0.13
0.161,0.02,-0.13,0.15,0.20
0.171,0.01,-0.14,0.16,0.21
0.181,0.02,-0.11,0.15,0.18
0.191,0.04,-0.05,0.09,0.11
0.201,0.12,0.12,0.02,0.18
0.211,0.07,0.17,-0.07,0.20
0.221,0.15,0.51,-0.28,0.60
0.231,-0.02,0.98,-0.50,1.11
0.241,-0.37,-0.12,-0.22,0.45
0.251,0.01,-0.30,0.05,0.30
0.262,0.14,-0.23,0.20,0.33
0.271,0.20,-0.25,0.19,0.38
0.282,0.29,-0.24,0.12,0.40
0.292,0.32,-0.16,0.05,0.36
0.302,0.34,-0.11,-0.03,0.36
0.312,0.31,-0.02,-0.03,0.31
0.322,0.25,0.05,-0.02,0.25
0.332,0.15,0.06,-0.06,0.17
0.342,0.06,0.05,-0.05,0.09
0.352,0.02,0.02,-0.04,0.04
0.362,0.02,0.01,-0.05,0.06
0.372,0.02,0.03,0.01,0.03
0.382,0.01,-0.03,0.09,0.10
0.392,0.02,-0.11,0.14,0.18
0.402,0.04,-0.15,0.17,0.23
0.412,0.07,-0.11,0.21,0.24
0.422,0.11,0.01,0.26,0.28
0.432,0.13,0.01,0.14,0.19
0.443,0.09,-0.03,-0.10,0.13
0.453,0.09,-0.03,-0.01,0.09
0.463,0.08,-0.05,0.05,0.10
0.473,0.12,-0.05,0.06,0.14
0.483,0.06,-0.03,-0.06,0.09
0.493,0.14,-0.02,-0.05,0.15
0.503,0.07,-0.08,0.03,0.11
0.513,0.08,-0.13,-0.10,0.18
0.523,0.16,-0.02,-0.03,0.17
0.533,0.11,0.08,0.00,0.14
0.543,0.08,0.08,-0.06,0.13
0.553,0.05,0.09,-0.10,0.14
0.563,-0.01,0.09,-0.10,0.14
0.573,-0.01,0.06,-0.06,0.09
0.583,-0.02,0.02,-0.04,0.04
0.593,0.02,-0.00,-0.01,0.02
0.603,0.03,-0.02,0.02,0.04
0.613,0.05,-0.06,0.02,0.08
0.624,0.05,-0.09,0.05,0.11
0.634,0.06,-0.10,0.06,0.14
0.644,0.06,-0.08,0.03,0.11
0.654,0.08,-0.03,0.03,0.09
0.664,0.08,-0.00,0.02,0.08
0.674,0.08,0.02,0.01,0.08
0.684,0.07,0.02,0.03,0.08
0.694,0.06,0.00,-0.01,0.06
0.704,0.05,-0.02,-0.01,0.06
0.714,0.05,-0.05,0.02,0.08
0.724,0.05,-0.06,0.05,0.09
0.734,0.09,-0.03,-0.04,0.10
0.744,0.09,0.01,-0.15,0.17
0.754,0.08,0.07,-0.27,0.29
0.764,0.04,0.14,-0.36,0.39
0.774,-0.04,0.16,-0.36,0.40
0.784,-0.18,0.14,-0.28,0.36
0.794,-0.21,0.13,-0.14,0.29
0.805,-0.15,0.11,-0.05,0.20
0.815,-0.04,0.05,0.00,0.06
0.825,0.05,-0.01,0.02,0.06
0.835,0.10,-0.04,-0.01,0.11
0.845,0.09,-0.06,-0.03,0.11
0.855,0.09,-0.06,-0.06,0.12
0.865,0.04,-0.06,-0.12,0.14
0.875,-0.08,-0.06,-0.08,0.13
0.885,-0.18,-0.04,-0.04,0.18
0.895,-0.24,-0.04,-0.05,0.25
0.905,-0.21,-0.03,-0.08,0.23
0.915,-0.11,-0.03,-0.10,0.15
0.925,0.02,-0.02,-0.10,0.11
0.935,0.16,-0.04,-0.09,0.19
0.945,0.23,-0.11,-0.02,0.25
0.955,0.21,-0.11,0.11,0.26
0.966,0.23,-0.10,0.24,0.35
0.975,0.27,-0.10,0.31,0.42
0.985,0.42,-0.10,0.36,0.56
0.996,0.56,-0.06,0.34,0.66
1.006,0.59,-0.01,0.22,0.62
1.016,0.48,-0.03,0.05,0.48
1.026,0.30,-0.05,-0.10,0.32
1.036,0.03,-0.06,-0.14,0.15
1.046,-0.20,-0.05,-0.04,0.21
1.056,-0.30,-0.04,0.09,0.31
1.066,-0.30,-0.08,0.15,0.34
1.076,-0.25,-0.11,0.27,0.38
1.086,-0.12,-0.14,0.37,0.42
1.096,0.07,-0.15,0.41,0.44
1.106,0.23,-0.15,0.50,0.56
1.116,0.38,-0.15,0.45,0.61
1.126,0.48,-0.14,0.28,0.58
1.136,0.44,-0.15,0.15,0.49
1.146,0.29,-0.12,0.06,0.32
1.157,0.16,-0.08,0.06,0.19
1.167,0.12,-0.03,0.02,0.12
1.177,0.11,0.03,-0.11,0.16
1.187,0.11,0.10,-0.16,0.22
1.197,0.15,0.15,-0.12,0.24
1.207,0.21,0.15,-0.11,0.28
1.217,0.27,0.16,-0.15,0.35
1.227,0.23,0.08,-0.07,0.26
1.237,0.20,0.01,0.09,0.22
1.247,0.19,-0.03,0.12,0.23
1.257,0.18,0.01,0.02,0.18
1.267,0.13,0.02,-0.10,0.16
1.277,0.08,0.02,-0.07,0.10
1.287,0.03,0.00,-0.08,0.08
1.297,-0.01,-0.00,-0.17,0.17
1.307,-0.03,0.03,-0.17,0.18
1.317,-0.01,0.05,-0.11,0.12
1.328,0.03,0.03,0.03,0.05
1.338,0.07,-0.04,0.18,0.19
1.348,0.13,-0.10,0.26,0.31
1.358,0.21,-0.12,0.28,0.37
1.368,0.28,-0.15,0.27,0.41
1.378,0.30,-0.15,0.24,0.41
1.388,0.28,-0.13,0.16,0.34
1.398,0.21,-0.12,0.13,0.27
1.408,0.10,-0.10,0.11,0.17
1.418,-0.02,-0.09,0.08,0.12
1.428,-0.11,-0.04,0.03,0.12
1.438,-0.17,0.03,-0.04,0.18
1.448,-0.22,0.06,-0.06,0.24
1.458,-0.25,0.04,-0.01,0.25
1.468,-0.21,-0.02,0.04,0.22
1.478,-0.10,-0.04,0.02,0.11
1.488,0.05,-0.01,-0.04,0.07
1.499,0.14,-0.01,-0.12,0.19
1.509,0.19,0.04,-0.13,0.23
1.519,0.20,0.05,-0.06,0.21
1.529,0.21,0.03,-0.01,0.22
1.539,0.21,0.00,0.06,0.22
1.549,0.17,-0.04,0.08,0.19
1.559,0.12,-0.11,0.10,0.19
1.569,0.12,-0.16,0.12,0.23
1.579,0.13,-0.15,0.04,0.20
1.589,0.14,-0.09,0.07,0.17
1.599,0.15,0.00,0.07,0.16
1.609,0.18,0.06,0.03,0.19
1.619,0.19,0.07,0.04,0.20
1.629,0.21,0.05,-0.00,0.21
1.639,0.20,0.04,-0.04,0.21
1.649,0.17,-0.02,-0.12,0.21
1.659,0.11,-0.04,-0.15,0.19
1.670,0.06,-0.00,-0.10,0.12
1.679,0.02,-0.00,-0.04,0.04
1.690,0.04,0.03,-0.03,0.06
1.700,0.05,0.04,0.07,0.09
1.710,0.07,0.06,0.11,0.14
1.720,0.12,0.07,0.11,0.18
1.730,0.20,0.06,0.06,0.22
1.740,0.24,-0.01,-0.00,0.24
1.750,0.24,-0.11,0.01,0.27
1.760,0.25,-0.17,0.07,0.31
1.770,0.21,-0.20,0.15,0.33
1.780,0.14,-0.20,0.28,0.37
1.790,0.09,-0.16,0.29,0.35
1.800,0.04,-0.10,0.13,0.17
1.810,-0.01,-0.03,0.03,0.04
1.820,-0.06,0.04,-0.05,0.09
1.830,-0.11,0.06,0.01,0.13
1.841,-0.15,0.01,0.12,0.19
1.851,-0.17,0.00,0.14,0.22
1.860,-0.17,-0.03,0.09,0.20
1.871,-0.09,-0.05,0.06,0.12
1.881,0.03,-0.05,0.06,0.09
1.891,0.15,-0.04,0.00,0.16
1.901,0.20,-0.01,-0.12,0.23
1.911,0.19,0.03,-0.25,0.31
1.921,0.13,0.02,-0.30,0.33
1.931,0.06,-0.00,-0.24,0.25
1.941,-0.00,-0.03,-0.10,0.11
1.951,-0.01,-0.04,0.02,0.05
1.961,-0.04,-0.02,0.06,0.08
1.971,-0.11,0.00,0.03,0.11
1.981,-0.17,0.04,-0.00,0.18
1.991,-0.21,0.04,0.05,0.22
2.001,-0.17,0.02,0.08,0.18
2.012,-0.00,-0.02,0.10,0.11
2.021,0.13,-0.06,0.07,0.16
2.032,0.17,-0.09,0.01,0.19
2.042,0.12,-0.08,-0.06,0.16
2.052,-0.01,-0.05,-0.02,0.05
2.062,-0.04,0.03,-0.02,0.05
2.072,-0.04,0.09,-0.13,0.17
2.082,-0.04,0.11,-0.22,0.25
2.092,0.04,0.16,-0.29,0.33
2.102,0.13,0.21,-0.35,0.43
2.112,0.21,0.20,-0.41,0.50
2.122,0.23,0.15,-0.39,0.47
2.132,0.17,0.08,-0.28,0.33
2.142,0.08,0.00,-0.20,0.21
2.152,0.04,-0.02,-0.14,0.15
2.162,-0.00,-0.04,-0.09,0.10
2.172,0.02,-0.02,-0.04,0.05
2.183,0.06,0.00,0.02,0.06
2.192,0.08,0.05,0.05,0.10
2.202,0.08,0.08,0.02,0.12
2.213,0.05,0.07,-0.01,0.09
2.223,0.01,0.04,-0.03,0.06
2.232,-0.04,-0.01,-0.00,0.05
2.243,-0.09,-0.10,0.05,0.14
2.253,-0.14,-0.15,0.10,0.23
2.263,-0.12,-0.18,0.16,0.27
2.273,-0.08,-0.17,0.22,0.29
2.283,-0.01,-0.15,0.28,0.32
2.293,0.10,-0.14,0.33,0.37
2.303,0.18,-0.11,0.32,0.38
2.313,0.25,-0.11,0.30,0.40
2.323,0.30,-0.11,0.27,0.42
2.333,0.33,-0.13,0.25,0.43
2.343,0.34,-0.11,0.22,0.42
2.353,0.29,-0.11,0.14,0.34
2.363,0.26,-0.10,0.06,0.29
2.373,0.26,-0.06,-0.00,0.27
2.383,0.24,-0.03,-0.07,0.25
2.394,0.18,0.02,-0.13,0.22
2.403,0.10,0.05,-0.14,0.17
2.414,0.01,0.06,-0.08,0.09
2.424,-0.05,0.04,-0.02,0.07
2.434,-0.02,0.03,0.04,0.05
2.444,0.03,-0.00,0.06,0.06
2.454,0.08,0.00,0.00,0.08
2.464,0.14,0.01,-0.05,0.15
2.474,0.14,0.00,-0.10,0.17
2.484,0.10,-0.02,-0.11,0.15
2.494,0.02,-0.05,-0.08,0.09
2.504,-0.02,-0.05,0.01,0.05
2.514,-0.02,-0.03,0.07,0.08
2.524,0.00,0.01,0.12,0.12
2.534,0.04,0.05,0.11,0.12
2.544,0.08,0.08,0.00,0.11
2.554,0.09,0.08,-0.12,0.17
2.564,0.08,0.04,-0.18,0.20
2.575,0.06,-0.01,-0.17,0.18
2.585,0.06,-0.02,-0.10,0.12
2.595,0.06,-0.06,-0.00,0.08
2.605,0.06,-0.06,0.03,0.09
2.615,0.09,-0.00,0.03,0.10
2.625,0.11,0.02,0.01,0.11
2.635,0.08,0.03,-0.02,0.09
2.645,0.02,0.01,-0.02,0.03
2.655,-0.00,-0.01,0.01,0.01
2.665,-0.03,-0.04,0.08,0.09
2.675,-0.01,-0.08,0.11,0.14
2.685,0.06,-0.09,0.13,0.16
2.695,0.12,-0.07,0.11,0.18
2.705,0.13,-0.06,0.09,0.16
2.715,0.14,-0.03,0.06,0.16
2.725,0.13,-0.02,0.03,0.14
2.736,0.11,-0.03,0.03,0.12
2.745,0.11,-0.04,0.07,0.13
2.756,0.11,-0.02,0.05,0.12
2.766,0.11,0.02,0.01,0.11
2.776,0.11,0.03,-0.04,0.12
2.786,0.11,0.02,-0.07,0.13
2.796,0.12,0.01,-0.06,0.13
2.806,0.14,-0.04,-0.01,0.14
2.816,0.16,-0.07,0.03,0.18
2.826,0.16,-0.06,0.06,0.18
2.836,0.15,-0.04,-0.01,0.15
2.846,0.07,-0.03,-0.05,0.09
2.856,0.00,0.01,-0.05,0.05
2.866,-0.04,0.01,-0.04,0.06
2.876,-0.04,0.03,-0.01,0.05
2.886,-0.02,-0.00,0.02,0.03
2.896,-0.01,-0.01,0.04,0.04
2.906,-0.01,-0.00,0.01,0.02
2.916,0.02,-0.01,-0.03,0.04
2.926,0.03,-0.05,-0.04,0.07
2.936,0.05,-0.04,-0.03,0.07
2.946,0.09,-0.02,-0.04,0.10
2.957,0.11,-0.01,-0.01,0.11
2.967,0.14,0.02,-0.02,0.15
2.977,0.13,0.02,-0.02,0.13
2.987,0.10,0.01,-0.00,0.10
2.997,0.11,0.01,0.01,0.11
3.007,0.08,-0.03,0.04,0.09
3.017,0.07,-0.05,0.05,0.10
3.027,0.09,-0.07,0.04,0.12
3.037,0.09,-0.07,0.04,0.12
3.047,0.13,-0.05,0.06,0.15
3.057,0.14,-0.00,0.02,0.15
3.067,0.13,0.03,-0.01,0.14
3.077,0.11,0.03,-0.05,0.12
3.088,0.07,0.02,-0.07,0.10
3.097,0.03,0.00,-0.09,0.09
3.108,0.02,-0.01,-0.05,0.05
3.118,0.02,-0.02,-0.01,0.03
3.128,0.06,-0.03,0.01,0.07
3.138,0.08,0.01,-0.01,0.08
3.148,0.09,0.03,-0.01,0.09
3.158,0.08,0.03,-0.02,0.09
3.168,0.03,0.02,-0.05,0.06
3.178,0.02,0.00,-0.07,0.07
3.188,0.01,-0.00,-0.11,0.11
3.198,0.01,-0.01,-0.08,0.08
3.208,0.04,-0.03,-0.04,0.06
3.218,0.09,0.00,-0.00,0.09
3.228,0.08,0.01,0.01,0.08
3.238,0.09,-0.01,0.02,0.09
3.248,0.09,-0.02,0.02,0.09
3.258,0.08,-0.03,0.00,0.08
3.268,0.07,-0.03,-0.04,0.09
3.278,0.05,-0.00,-0.02,0.05
3.289,0.03,0.02,-0.02,0.04
3.299,0.00,0.02,-0.02,0.03
3.309,0.02,0.01,-0.02,0.03
3.319,0.05,-0.02,-0.00,0.06
3.329,0.13,-0.01,0.02,0.13
3.339,0.16,-0.01,0.03,0.16
3.349,0.15,-0.01,0.05,0.16
3.359,0.17,-0.04,0.09,0.19
3.369,0.15,-0.08,0.13,0.21
3.379,0.13,-0.12,0.14,0.23
3.389,0.12,-0.13,0.14,0.22
3.399,0.09,-0.11,0.12,0.18
3.409,0.07,-0.09,0.11,0.16
3.419,0.06,-0.05,0.11,0.14
3.429,0.07,-0.04,0.09,0.12
3.439,0.07,-0.01,0.08,0.10
3.450,0.06,0.02,0.05,0.08
3.460,0.04,0.02,0.05,0.07
3.470,0.04,-0.00,0.02,0.04
3.480,0.05,-0.03,-0.00,0.06
3.490,0.06,-0.03,0.01,0.07
3.500,0.10,-0.04,0.00,0.10
3.510,0.12,-0.03,-0.02,0.12
3.520,0.12,-0.03,-0.02,0.12
3.530,0.09,-0.03,-0.03,0.10
3.540,0.07,-0.03,-0.02,0.08
3.550,0.05,-0.02,-0.01,0.06
3.560,0.06,0.00,0.00,0.06
3.570,0.03,0.02,-0.00,0.04
3.580,0.02,0.01,-0.01,0.03
3.590,0.02,0.00,-0.01,0.02
3.600,0.04,-0.04,-0.01,0.06
3.610,0.10,-0.05,-0.01,0.12
3.620,0.14,-0.05,0.02,0.15
3.630,0.14,-0.06,0.06,0.17
3.641,0.15,-0.04,0.07,0.18
3.651,0.12,-0.04,0.02,0.12
3.661,0.10,-0.01,-0.02,0.10
3.671,0.06,0.01,-0.04,0.08
3.681,0.04,0.01,-0.06,0.07
3.691,0.04,0.02,-0.07,0.08
3.701,0.02,0.03,-0.09,0.10
3.711,0.01,0.04,-0.11,0.11
3.721,0.00,0.03,-0.11,0.11
3.731,0.02,-0.01,-0.08,0.08
3.741,0.04,-0.04,-0.05,0.07
3.751,0.07,-0.03,-0.01,0.08
3.761,0.09,-0.03,0.03,0.10
3.771,0.11,-0.03,0.09,0.14
3.781,0.13,-0.01,0.13,0.19
3.791,0.13,-0.00,0.10,0.17
3.802,0.10,-0.00,0.04,0.11
3.811,0.07,-0.04,0.03,0.08
3.821,0.04,-0.06,0.03,0.08
3.832,0.05,-0.07,0.02,0.09
3.842,0.07,-0.06,0.03,0.10
3.852,0.06,-0.05,0.02,0.08
3.862,0.08,-0.02,0.03,0.08
3.872,0.06,0.02,0.03,0.07
3.882,0.05,0.01,0.04,0.06
3.892,0.04,0.02,0.02,0.05
3.902,0.06,0.03,-0.03,0.07
3.912,0.11,0.04,-0.07,0.13
3.922,0.10,0.05,-0.08,0.14
3.932,0.08,-0.00,-0.06,0.10
3.942,0.10,-0.02,-0.03,0.10
3.952,0.10,-0.08,0.03,0.13
3.962,0.10,-0.11,0.07,0.16
3.972,0.07,-0.09,0.05,0.13
3.983,0.04,-0.04,0.04,0.07
3.993,0.03,-0.01,0.04,0.05
4.003,0.04,0.02,0.04,0.06
4.013,0.05,0.03,0.04,0.07
4.023,0.05,0.01,0.07,0.09
4.033,0.06,-0.03,0.06,0.09
4.043,0.07,-0.06,0.07,0.12
4.053,0.08,-0.09,0.05,0.13
4.063,0.09,-0.08,0.02,0.12
4.073,0.10,-0.03,0.01,0.10
4.083,0.09,-0.01,-0.02,0.09
4.093,0.10,0.01,-0.04,0.10
4.103,0.08,0.04,-0.06,0.11
4.113,0.04,0.04,-0.04,0.07
4.123,0.02,0.02,-0.03,0.04
4.133,0.03,0.00,-0.02,0.04
4.143,0.06,-0.01,0.00,0.06
4.153,0.07,-0.01,0.00,0.07
4.164,0.07,-0.02,0.00,0.07
4.174,0.08,-0.04,0.03,0.09
4.184,0.11,-0.04,0.03,0.12
4.194,0.10,-0.05,0.03,0.12
4.204,0.11,-0.02,0.02,0.11
4.214,0.10,-0.02,0.01,0.10
4.224,0.09,-0.01,0.02,0.09
4.234,0.07,-0.00,0.03,0.08
4.244,0.07,0.01,0.02,0.07
4.254,0.05,-0.02,0.03,0.06
4.264,0.05,-0.02,0.03,0.06
4.274,0.05,-0.03,0.03,0.07
4.284,0.04,-0.03,0.05,0.07
4.294,0.04,-0.03,0.04,0.07
4.304,0.06,-0.03,0.00,0.07
4.314,0.08,-0.01,-0.02,0.09
4.324,0.09,-0.01,-0.03,0.10
4.335,0.09,0.00,-0.01,0.09
4.345,0.07,-0.01,-0.01,0.08
4.354,0.05,-0.03,0.01,0.06
4.365,0.03,-0.04,0.02,0.05
4.375,0.05,-0.01,0.01,0.05
4.385,0.06,-0.00,0.04,0.07
4.395,0.07,0.01,0.04,0.08
4.405,0.06,0.01,0.02,0.06
4.415,0.04,-0.02,0.01,0.04
4.425,0.05,-0.02,0.00,0.05
4.435,0.04,-0.02,-0.02,0.05
4.445,0.03,-0.03,-0.03,0.05
4.455,0.04,-0.01,-0.00,0.04
4.465,0.05,0.00,-0.01,0.05
4.475,0.02,0.02,-0.02,0.03
4.485,0.01,0.03,-0.02,0.04
4.495,0.02,0.03,-0.05,0.06
4.505,0.01,0.01,-0.08,0.08
4.515,0.01,0.01,-0.05,0.05
4.526,0.05,-0.01,-0.02,0.06
4.536,0.09,-0.01,-0.01,0.09
4.546,0.10,-0.01,-0.00,0.10
4.556,0.07,-0.00,-0.00,0.07
4.566,0.09,-0.01,-0.01,0.09
4.576,0.07,-0.06,0.01,0.09
4.586,0.05,-0.07,0.01,0.09
4.596,0.03,-0.04,-0.01,0.05
4.606,0.02,-0.01,-0.05,0.05
4.616,0.01,-0.00,-0.03,0.03
4.626,0.03,-0.00,-0.01,0.03
4.636,0.03,-0.00,0.03,0.04
4.646,0.04,-0.02,0.10,0.11
4.656,0.04,-0.05,0.14,0.16
4.666,0.06,-0.03,0.12,0.14
4.676,0.05,-0.04,0.08,0.10
4.686,0.06,-0.02,0.00,0.06
4.696,0.04,-0.03,-0.05,0.07
4.707,0.05,0.01,-0.06,0.08
4.717,0.05,0.02,-0.04,0.07
4.727,0.04,0.01,-0.04,0.06
4.737,0.01,-0.00,0.00,0.02
4.747,0.01,-0.01,0.02,0.03
4.757,0.04,-0.02,0.02,0.04
4.767,0.04,-0.04,0.04,0.07
4.777,0.06,-0.01,0.01,0.07
4.787,0.08,-0.01,0.02,0.08
4.797,0.08,-0.03,0.02,0.09
4.807,0.08,-0.04,0.02,0.09
4.817,0.08,-0.04,0.02,0.09
4.827,0.09,-0.03,0.03,0.09
4.837,0.09,-0.01,0.03,0.09
4.847,0.07,-0.00,0.03,0.08
4.857,0.04,-0.01,-0.00,0.04
4.868,0.02,-0.01,-0.01,0.02
4.877,0.03,-0.01,-0.02,0.03
4.888,0.03,-0.02,-0.00,0.03
4.898,0.05,-0.03,0.02,0.06
4.908,0.07,-0.03,0.03,0.08
4.918,0.07,-0.02,0.04,0.09
4.928,0.06,-0.01,0.04,0.07
4.938,0.04,-0.00,0.02,0.04
4.948,0.02,0.01,-0.01,0.02
4.958,0.02,-0.02,-0.01,0.03
4.968,0.01,-0.04,-0.00,0.04
4.978,0.01,-0.03,0.01,0.03
4.988,0.03,-0.02,0.03,0.04
4.998,0.05,-0.03,0.06,0.08
5.008,0.06,-0.01,0.04,0.08
5.018,0.06,-0.00,0.05,0.07
5.028,0.05,-0.00,0.01,0.05
5.038,0.04,0.00,-0.05,0.06
5.048,0.02,-0.03,-0.04,0.05
5.058,0.01,-0.03,-0.03,0.04
5.069,0.03,-0.00,0.01,0.03
5.079,0.05,-0.01,0.03,0.06
5.089,0.06,-0.01,0.04,0.07
5.099,0.06,0.00,0.03,0.07
5.109,0.05,-0.01,0.03,0.06
5.119,0.04,-0.02,0.01,0.05
5.129,0.04,-0.02,-0.02,0.04
5.139,0.04,-0.03,-0.01,0.05
5.149,0.06,-0.03,-0.02,0.07
5.159,0.09,0.00,-0.02,0.09
5.169,0.08,-0.00,0.00,0.08
5.179,0.08,-0.01,0.03,0.08
5.189,0.04,-0.02,0.02,0.05
5.199,0.02,-0.01,0.01,0.02
5.209,0.01,0.01,-0.02,0.02
5.219,-0.00,0.01,-0.04,0.04
5.230,0.01,-0.00,-0.03,0.03
5.239,0.02,0.01,-0.04,0.04
5.250,0.04,-0.01,-0.02,0.04
5.260,0.03,-0.01,-0.02,0.03
5.270,0.01,-0.01,-0.02,0.02
5.280,-0.01,0.01,-0.02,0.03
5.290,-0.04,-0.00,-0.05,0.06
5.300,-0.05,0.01,-0.03,0.06
5.310,-0.03,0.02,-0.05,0.06
5.320,-0.02,0.01,-0.06,0.06
5.330,-0.01,0.02,-0.06,0.06
5.340,0.03,0.04,-0.07,0.09
5.350,0.06,0.03,-0.06,0.09
5.360,0.09,0.00,-0.02,0.09
5.370,0.11,-0.00,-0.04,0.12
5.380,0.09,0.00,-0.01,0.09
5.390,0.06,-0.02,0.05,0.08
5.400,0.02,-0.06,0.08,0.10
5.411,0.00,-0.07,0.04,0.08
5.421,-0.01,-0.05,-0.00,0.05
5.431,0.00,-0.02,-0.02,0.03
5.441,0.02,0.02,-0.03,0.05
5.451,0.01,0.02,-0.04,0.04
5.461,-0.00,-0.00,0.00,0.01
5.471,-0.02,-0.03,0.04,0.05
5.481,-0.00,-0.04,0.06,0.08
5.491,0.01,-0.04,0.05,0.07
5.501,0.02,-0.04,0.05,0.07
5.511,0.05,-0.02,0.02,0.06
5.521,0.08,-0.00,-0.02,0.08
5.531,0.10,0.02,-0.04,0.11
5.541,0.09,-0.01,-0.05,0.10
5.551,0.07,-0.02,-0.02,0.08
5.561,0.06,-0.01,-0.02,0.07
5.571,0.03,-0.01,-0.02,0.03
5.581,-0.00,-0.01,0.00,0.01
5.591,-0.01,-0.01,0.03,0.03
5.601,-0.01,-0.00,0.04,0.04
5.612,0.02,-0.02,0.04,0.05
5.622,0.04,-0.02,0.03,0.05
5.632,0.06,-0.01,0.02,0.06
5.642,0.06,-0.03,0.02,0.07
5.652,0.07,-0.03,0.01,0.07
5.662,0.07,-0.01,-0.00,0.07
5.672,0.05,-0.02,-0.01,0.06
5.682,0.05,-0.01,-0.01,0.05
5.692,0.04,-0.01,-0.01,0.04
5.702,0.04,-0.01,-0.02,0.04
5.712,0.04,-0.00,-0.01,0.04
5.722,0.03,0.01,0.01,0.03
5.732,0.01,0.01,0.01,0.02
5.742,0.02,-0.00,0.01,0.03
5.752,0.00,-0.01,0.01,0.02
5.762,0.01,-0.02,0.03,0.03
5.772,0.02,-0.02,0.00,0.03
5.782,0.02,-0.01,0.00,0.02
5.793,0.03,-0.01,-0.00,0.03
5.803,0.05,-0.02,-0.01,0.05
5.813,0.07,-0.03,-0.01,0.08
5.823,0.08,-0.02,0.01,0.08
5.833,0.08,0.01,0.00,0.08
5.843,0.04,0.01,-0.03,0.05
5.853,0.02,-0.00,-0.03,0.04
5.863,0.00,0.00,-0.04,0.04
5.873,-0.02,0.00,-0.04,0.05
5.883,-0.04,-0.01,-0.00,0.04
5.893,-0.05,-0.01,0.00,0.05
5.903,-0.03,-0.01,-0.00,0.03
5.913,-0.02,-0.01,-0.04,0.05
5.923,0.01,-0.01,-0.07,0.07
5.934,0.02,0.01,-0.10,0.10
5.944,0.02,-0.01,-0.06,0.06
5.954,0.02,-0.05,0.05,0.07
5.964,0.06,-0.04,0.11,0.13
5.974,0.10,-0.01,0.09,0.14
5.984,0.10,0.01,0.07,0.12
5.994,0.11,0.03,0.05,0.12
6.004,0.11,0.00,0.02,0.11
6.014,0.08,-0.06,-0.00,0.10
6.024,0.06,-0.07,0.03,0.10
6.034,0.02,-0.07,0.06,0.10
6.044,0.02,-0.05,0.09,0.11
6.054,0.03,-0.02,0.07,0.08
6.064,0.02,-0.01,0.03,0.03
6.074,-0.00,0.02,-0.03,0.03
6.084,-0.02,0.04,-0.05,0.07
6.094,-0.05,0.02,-0.08,0.10
6.104,-0.06,0.02,-0.05,0.08
6.114,-0.04,0.01,-0.00,0.04
6.125,-0.01,0.02,-0.01,0.03
6.135,0.03,0.03,-0.03,0.05
6.145,0.06,0.02,-0.04,0.07
6.155,0.06,0.00,-0.05,0.08
6.165,0.07,-0.02,-0.04,0.08
6.175,0.10,-0.05,0.01,0.11
6.185,0.10,-0.07,0.04,0.13
6.195,0.10,-0.06,0.03,0.12
6.205,0.07,-0.02,-0.00,0.08
6.215,0.03,0.01,-0.04,0.05
6.225,-0.00,0.01,-0.02,0.02
6.235,-0.02,-0.01,0.01,0.03
6.245,-0.01,-0.00,0.06,0.07
6.255,-0.01,-0.01,0.03,0.04
6.265,-0.03,-0.01,0.04,0.05
6.275,-0.03,-0.02,0.02,0.04
6.286,-0.01,-0.02,0.01,0.02
6.296,0.00,-0.01,-0.06,0.06
6.305,0.02,0.02,-0.12,0.12
6.316,0.03,0.01,-0.06,0.07
6.326,0.03,-0.00,-0.02,0.04
6.336,0.06,-0.00,0.01,0.06
6.346,0.03,0.00,0.03,0.04
6.356,0.03,0.01,0.02,0.04
6.366,0.03,-0.00,0.01,0.04
6.376,0.07,-0.02,-0.03,0.07
6.386,0.07,-0.04,-0.01,0.08
6.396,0.07,-0.04,0.00,0.08
6.406,0.06,-0.03,0.03,0.07
6.416,0.05,-0.03,0.03,0.07
6.426,0.02,-0.01,0.04,0.05
6.436,-0.01,-0.01,0.02,0.03
6.446,-0.02,-0.03,0.01,0.04
6.456,-0.01,-0.04,-0.02,0.05
6.466,0.00,-0.01,-0.03,0.03
6.477,0.02,0.01,-0.02,0.03
6.486,0.01,0.02,-0.03,0.04
6.497,0.02,0.02,-0.02,0.04
6.507,0.00,0.00,-0.01,0.01
6.517,0.00,-0.01,-0.02,0.03
6.527,0.00,-0.02,-0.02,0.03
6.537,-0.00,-0.01,-0.03,0.03
6.547,0.00,-0.00,-0.02,0.02
6.557,0.01,0.01,-0.01,0.02
6.567,0.04,0.01,-0.01,0.04
6.577,0.06,0.00,0.00,0.06
6.587,0.06,-0.01,0.02,0.07
6.597,0.04,-0.03,-0.01,0.05
6.607,0.05,-0.04,-0.02,0.07
6.617,0.03,-0.04,0.02,0.06
6.627,0.03,-0.03,0.00,0.04
6.638,0.00,0.00,-0.02,0.02
6.648,0.01,0.02,-0.01,0.03
6.658,0.01,0.02,-0.02,0.03
6.668,0.00,0.02,-0.04,0.04
6.678,-0.01,0.00,-0.04,0.04
6.688,-0.02,-0.01,-0.02,0.03
6.698,-0.01,-0.03,0.00,0.03
6.708,-0.01,-0.03,-0.01,0.04
6.718,-0.01,-0.03,0.02,0.04
6.728,-0.00,-0.02,0.03,0.04
6.738,0.02,0.01,0.00,0.02
6.748,0.00,0.02,0.00,0.02
6.758,0.03,0.01,0.01,0.03
6.768,0.04,0.02,0.03,0.06
6.778,0.05,-0.01,0.05,0.07
6.788,0.04,-0.02,0.03,0.05
6.798,0.00,-0.04,-0.03,0.05
6.808,-0.01,-0.04,-0.01,0.05
6.818,0.00,-0.04,0.00,0.04
6.828,0.01,-0.02,0.01,0.03
6.838,-0.02,0.00,0.04,0.05
6.849,-0.01,-0.00,0.03,0.03
6.859,0.01,0.01,0.03,0.03
6.869,0.02,0.02,0.01,0.03
6.879,0.06,0.02,0.00,0.06
6.889,0.06,0.00,0.00,0.06
6.899,0.08,-0.01,0.01,0.08
6.909,0.08,-0.02,-0.01,0.09
6.919,0.07,-0.02,-0.02,0.08
6.929,0.05,-0.02,0.01,0.06
6.939,0.02,-0.05,0.02,0.06
6.949,0.01,-0.05,0.00,0.06
6.959,0.00,-0.02,0.00,0.02
6.969,0.02,-0.00,0.03,0.04
6.979,0.02,0.00,0.04,0.04
6.989,0.03,0.01,0.03,0.04
7.000,0.01,0.02,0.02,0.03
7.010,0.01,0.00,-0.00,0.01
7.020,-0.00,-0.02,-0.01,0.02
7.030,-0.01,-0.03,0.01,0.03
7.040,-0.02,-0.03,0.02,0.04
7.050,-0.03,-0.02,0.01,0.03
7.060,-0.00,-0.01,-0.01,0.01
7.070,0.02,-0.02,-0.00,0.02
7.080,0.03,0.00,-0.03,0.04
7.090,0.05,0.02,-0.03,0.06
7.100,0.03,0.02,-0.02,0.04
7.110,0.01,-0.00,-0.00,0.01
7.120,0.02,-0.03,-0.01,0.04
7.130,0.03,-0.02,-0.00,0.04
7.140,0.04,-0.02,-0.00,0.04
7.150,0.04,-0.00,-0.02,0.04
7.160,0.02,-0.01,-0.03,0.03
7.171,0.01,-0.01,-0.02,0.02
7.180,0.00,-0.00,-0.03,0.03
7.191,0.00,-0.01,0.01,0.02
7.201,-0.00,-0.02,0.05,0.05
7.211,0.02,-0.02,0.06,0.06
7.221,0.03,-0.01,0.04,0.05
7.231,0.04,-0.00,0.02,0.05
7.241,0.05,-0.01,0.01,0.06
7.251,0.06,-0.01,0.00,0.06
7.261,0.03,-0.03,0.01,0.04
7.271,0.02,-0.04,0.02,0.05
7.281,0.02,-0.03,0.01,0.04
7.291,0.02,-0.03,-0.00,0.04
7.301,0.01,-0.02,0.01,0.02
7.311,0.00,-0.02,0.01,0.02
7.321,-0.01,0.00,0.01,0.02
7.331,-0.00,-0.02,0.03,0.03
7.341,-0.01,-0.03,0.03,0.04
7.352,-0.01,-0.03,0.01,0.04
7.362,0.01,-0.02,0.00,0.02
7.372,0.02,-0.02,0.00,0.03
7.382,0.02,0.00,-0.02,0.03
7.392,0.02,0.01,-0.04,0.05
7.402,0.02,-0.01,-0.03,0.04
7.412,0.03,-0.01,0.01,0.04
7.422,0.03,-0.00,0.01,0.04
7.432,0.04,-0.01,-0.01,0.04
7.442,0.03,0.01,-0.01,0.03
7.452,0.04,-0.01,-0.04,0.06
7.462,0.05,-0.02,-0.02,0.05
7.472,0.06,-0.03,0.02,0.07
7.482,0.03,-0.02,0.07,0.08
7.492,0.00,-0.02,0.08,0.08
7.502,-0.01,-0.02,0.00,0.02
7.512,-0.02,0.00,-0.05,0.05
7.522,-0.02,-0.00,-0.07,0.07
7.533,-0.02,0.01,-0.07,0.07
7.543,-0.02,0.02,-0.02,0.03
7.553,-0.02,0.02,-0.01,0.03
7.563,-0.01,0.01,0.03,0.03
7.573,-0.01,0.00,0.04,0.04
7.583,0.00,0.00,-0.00,0.00
7.593,0.02,-0.01,-0.06,0.06
7.603,0.04,-0.01,-0.08,0.10
7.613,0.05,-0.02,-0.07,0.08
7.623,0.04,-0.01,-0.02,0.05
7.633,0.05,-0.00,-0.00,0.05
7.643,0.03,-0.02,0.03,0.04
7.653,0.00,-0.04,0.03,0.05
7.663,0.02,-0.03,0.03,0.05
7.673,0.02,-0.01,0.01,0.03
7.683,0.03,-0.01,0.01,0.03
7.693,0.03,-0.03,0.03,0.05
7.703,0.03,-0.03,0.05,0.07
7.714,0.02,-0.04,0.06,0.08
7.724,0.02,-0.03,0.08,0.08
7.734,0.02,-0.01,0.03,0.04
7.744,-0.01,0.00,0.01,0.01
7.754,-0.02,0.01,-0.04,0.05
7.764,-0.01,0.02,-0.09,0.10
7.774,0.00,0.00,-0.10,0.10
7.784,-0.02,-0.01,-0.07,0.07
7.794,0.00,-0.00,-0.06,0.06
7.804,-0.00,0.01,-0.05,0.05
7.814,-0.02,0.02,-0.03,0.04
7.824,-0.01,0.02,-0.01,0.03
7.834,0.00,0.03,0.00,0.03
7.844,0.02,0.02,-0.00,0.03
7.854,0.03,-0.00,0.01,0.03
7.864,0.05,-0.04,0.05,0.08
7.874,0.07,-0.06,0.07,0.11
7.884,0.08,-0.07,0.09,0.14
7.894,0.08,-0.05,0.08,0.13
7.905,0.07,-0.05,0.06,0.11
7.915,0.07,-0.04,0.06,0.10
7.925,0.05,-0.02,0.05,0.07
7.935,0.02,-0.02,0.06,0.06
7.945,0.01,-0.01,0.06,0.06
7.955,-0.01,0.00,0.03,0.04
7.965,-0.01,0.00,0.03,0.03
7.975,0.01,0.00,0.01,0.02
7.985,0.01,-0.02,-0.01,0.03
7.995,0.02,-0.05,-0.03,0.06
8.005,0.02,-0.03,-0.03,0.05
8.015,-0.00,-0.02,-0.01,0.02
8.025,0.02,-0.00,-0.01,0.02
8.035,0.01,0.00,0.01,0.01
8.045,0.01,-0.00,0.01,0.01
8.055,-0.00,-0.00,0.02,0.02
8.066,0.01,-0.02,0.01,0.03
8.076,0.03,-0.03,0.01,0.04
8.086,0.05,-0.02,0.04,0.07
8.096,0.04,-0.03,0.03,0.06
8.106,0.03,-0.02,0.01,0.04
8.116,0.00,-0.03,-0.00,0.03
8.126,-0.02,-0.03,0.00,0.04
8.136,-0.00,0.00,0.00,0.00
8.146,0.01,0.01,-0.01,0.02
8.156,0.02,0.01,-0.01,0.03
8.166,0.02,0.01,-0.02,0.02
8.176,0.01,0.00,-0.05,0.05
8.186,0.00,-0.00,-0.07,0.07
8.196,0.01,-0.02,-0.07,0.07
8.206,-0.01,-0.01,-0.07,0.07
8.216,-0.04,0.02,-0.04,0.06
8.226,-0.05,0.03,-0.00,0.06
8.236,-0.04,0.02,-0.01,0.04
8.246,-0.03,0.01,-0.00,0.03
8.256,-0.01,-0.01,-0.01,0.02
8.267,0.02,-0.01,-0.05,0.06
8.277,0.07,0.00,-0.05,0.08
8.287,0.07,0.00,-0.04,0.08
8.297,0.06,0.01,-0.04,0.07
8.307,0.03,0.00,-0.02,0.04
8.317,-0.00,-0.01,-0.00,0.01
8.327,-0.02,-0.05,-0.00,0.06
8.337,-0.02,-0.03,-0.02,0.04
8.347,-0.00,-0.01,-0.02,0.02
8.357,0.01,0.01,-0.00,0.02
8.367,0.03,0.02,-0.01,0.04
8.377,0.03,-0.01,0.03,0.04
8.387,0.02,-0.04,0.04,0.06
8.397,0.02,-0.04,0.05,0.07
8.407,0.00,-0.02,0.06,0.06
8.417,-0.03,-0.02,0.06,0.07
8.428,-0.00,-0.02,0.03,0.03
8.438,0.00,-0.02,-0.02,0.03
8.448,0.04,-0.00,-0.02,0.04
8.458,0.04,-0.00,-0.04,0.06
8.468,0.07,0.01,-0.05,0.09
8.478,0.04,0.00,-0.06,0.07
8.488,0.01,-0.00,-0.02,0.03
8.498,-0.01,-0.01,0.02,0.02
8.508,0.00,-0.00,0.03,0.03
8.518,0.00,0.00,-0.00,0.00
8.528,-0.02,0.01,-0.02,0.02
8.538,-0.03,-0.00,-0.03,0.05
8.548,-0.02,-0.02,-0.04,0.05
8.558,-0.02,-0.03,-0.05,0.06
8.568,0.00,-0.02,-0.02,0.03
8.578,0.04,0.01,-0.01,0.04
8.589,0.05,0.03,0.00,0.06
8.598,0.01,0.03,-0.02,0.03
8.609,-0.01,0.01,-0.01,0.01
8.619,0.01,-0.00,0.00,0.01
8.629,0.04,-0.02,0.03,0.05
8.639,0.07,-0.04,0.06,0.10
8.649,0.10,-0.07,0.08,0.15
8.659,0.12,-0.08,0.09,0.17
8.669,0.12,-0.08,0.09,0.17
8.679,0.09,-0.07,0.10,0.15
8.689,0.07,-0.08,0.09,0.14
8.699,0.09,-0.05,0.10,0.14
8.709,0.12,-0.04,0.12,0.17
8.719,0.16,-0.01,0.11,0.20
8.729,0.17,0.02,0.07,0.19
8.739,0.15,0.02,0.03,0.15
8.749,0.10,-0.01,0.02,0.11
8.759,0.06,-0.05,0.02,0.08
8.769,0.01,-0.08,0.06,0.10
8.779,0.01,-0.10,0.11,0.15
8.790,0.05,-0.09,0.12,0.16
8.800,0.09,-0.05,0.11,0.15
8.810,0.11,-0.01,0.10,0.15
8.820,0.13,-0.00,0.03,0.14
8.830,0.12,-0.01,-0.02,0.12
8.840,0.11,-0.02,0.01,0.11
8.850,0.12,-0.02,0.02,0.12
8.860,0.11,0.03,0.02,0.12
8.870,0.12,0.04,0.07,0.14
8.880,0.13,0.01,0.05,0.14
8.890,0.12,-0.04,0.04,0.13
8.900,0.10,-0.07,0.08,0.15
8.910,0.08,-0.09,0.08,0.15
8.920,0.08,-0.09,0.09,0.15
8.930,0.11,-0.07,0.11,0.17
8.940,0.11,-0.07,0.10,0.17
8.951,0.14,-0.06,0.13,0.20
8.961,0.14,-0.07,0.20,0.25
8.971,0.17,-0.09,0.31,0.36
8.981,0.20,-0.09,0.40,0.46
8.991,0.22,-0.11,0.47,0.53
9.001,0.27,-0.13,0.44,0.53
9.011,0.36,-0.11,0.27,0.46
9.021,0.43,-0.14,0.10,0.46
9.031,0.39,-0.17,0.03,0.43
9.041,0.29,-0.25,0.16,0.42
9.051,0.20,-0.33,0.33,0.51
9.061,0.19,-0.33,0.49,0.63
9.071,0.28,-0.32,0.59,0.73
9.081,0.37,-0.27,0.54,0.71
9.091,0.41,-0.20,0.37,0.59
9.101,0.42,-0.16,0.22,0.50
9.111,0.39,-0.15,0.14,0.44
9.122,0.39,-0.15,0.15,0.45
9.132,0.40,-0.15,0.20,0.47
9.142,0.37,-0.13,0.27,0.48
9.152,0.40,-0.15,0.32,0.53
9.162,0.40,-0.17,0.40,0.59
9.172,0.41,-0.16,0.46,0.63
9.182,0.38,-0.12,0.42,0.58
9.192,0.33,-0.09,0.29,0.45
9.202,0.29,-0.10,0.21,0.38
9.212,0.24,-0.10,0.12,0.29
9.222,0.22,-0.09,0.04,0.24
9.232,0.16,-0.09,0.02,0.18
9.242,0.12,-0.13,0.09,0.20
9.252,0.17,-0.13,0.16,0.27
9.262,0.20,-0.20,0.32,0.42
9.272,0.30,-0.20,0.44,0.57
9.282,0.46,-0.10,0.51,0.69
9.292,0.59,-0.01,0.43,0.73
9.303,0.64,0.02,0.32,0.71
9.313,0.77,-0.03,0.18,0.79
9.323,0.67,-0.09,0.08,0.68
9.333,0.50,-0.09,0.28,0.58
9.343,0.46,-0.08,0.44,0.64
9.353,0.51,-0.07,0.68,0.85
9.363,0.70,-0.06,0.90,1.14
9.373,0.88,-0.03,0.96,1.30
9.383,0.91,0.07,0.87,1.26
9.393,0.82,0.18,0.76,1.13
9.403,0.80,0.39,0.65,1.10
9.413,0.79,0.71,0.49,1.17
9.423,0.64,1.00,0.32,1.23
9.433,0.35,1.14,0.16,1.20
9.443,0.14,1.10,0.04,1.11
9.453,-0.04,0.92,0.00,0.92
9.463,-0.18,0.76,0.19,0.80
9.473,-0.30,0.76,0.21,0.85
9.484,-0.26,0.93,0.22,0.99
9.494,-0.18,1.10,0.22,1.13
9.504,-0.11,1.29,0.12,1.30
9.514,-0.10,1.49,0.07,1.50
9.524,-0.09,1.53,0.09,1.54
9.534,-0.15,1.32,0.03,1.33
9.544,-0.31,0.98,-0.00,1.03
9.554,-0.52,0.64,-0.04,0.82
9.564,-0.67,0.42,-0.03,0.79
9.574,-0.75,0.40,0.06,0.85
9.584,-0.75,0.46,0.09,0.88
9.594,-0.61,0.53,0.09,0.81
9.604,-0.50,0.67,0.03,0.84
9.614,-0.38,0.84,-0.06,0.93
9.624,-0.31,0.97,-0.17,1.03
9.634,-0.33,0.93,-0.25,1.01
9.644,-0.38,0.77,-0.23,0.89
9.655,-0.54,0.62,-0.23,0.86
9.664,-0.72,0.63,-0.22,0.98
9.674,-0.89,0.78,-0.19,1.20
9.685,-1.01,0.95,-0.13,1.39
9.695,-0.98,1.11,-0.08,1.49
9.705,-0.81,1.20,-0.07,1.45
9.715,-0.59,1.23,-0.04,1.37
9.725,-0.35,1.22,-0.04,1.27
9.735,-0.09,1.20,-0.03,1.21
9.745,0.14,1.23,-0.06,1.24
9.755,0.19,1.21,-0.17,1.24
9.765,0.05,1.09,-0.30,1.13
9.775,-0.18,0.96,-0.33,1.03
9.785,-0.41,0.82,-0.29,0.96
9.795,-0.62,0.72,-0.24,0.98
9.805,-0.74,0.71,-0.19,1.05
9.815,-0.74,0.71,-0.07,1.03
9.825,-0.70,0.70,0.00,0.99
9.835,-0.63,0.66,0.07,0.91
9.846,-0.53,0.64,0.05,0.83
9.856,-0.46,0.65,0.01,0.80
9.866,-0.42,0.72,0.01,0.83
9.876,-0.34,0.78,0.01,0.85
9.886,-0.29,0.77,0.01,0.82
9.896,-0.19,0.70,0.05,0.73
9.906,-0.13,0.61,0.07,0.63
9.916,-0.07,0.50,0.16,0.53
9.926,-0.00,0.39,0.15,0.42
9.936,0.03,0.26,0.11,0.28
9.946,0.01,0.19,0.10,0.22
9.956,-0.04,0.17,0.06,0.18
9.966,-0.13,0.20,0.04,0.24
9.976,-0.18,0.20,-0.01,0.27
9.986,-0.15,0.17,-0.00,0.23
9.996,-0.13,0.08,0.04,0.16
10.006,-0.18,0.01,-0.09,0.20
10.017,-0.26,-0.08,-0.15,0.31
10.026,-0.34,-0.15,-0.13,0.39
10.037,-0.30,-0.17,-0.07,0.36
10.047,-0.20,-0.18,0.06,0.28
10.057,-0.01,-0.19,0.19,0.27
10.067,0.21,-0.20,0.22,0.36
10.077,0.45,-0.27,0.25,0.58
10.087,0.61,-0.39,0.21,0.75
10.097,0.71,-0.52,0.04,0.88
10.107,0.65,-0.61,-0.06,0.89
10.117,0.55,-0.63,-0.09,0.84
10.127,0.42,-0.62,-0.07,0.75
10.137,0.29,-0.64,0.04,0.70
10.147,0.20,-0.70,0.08,0.73
10.157,0.08,-0.75,0.04,0.75
10.167,0.00,-0.72,0.01,0.72
10.177,0.03,-0.65,0.06,0.66
10.187,0.09,-0.60,0.09,0.61
10.197,0.16,-0.58,0.12,0.61
10.207,0.19,-0.63,0.09,0.66
10.218,0.20,-0.74,0.06,0.77
10.228,0.27,-0.86,0.08,0.91
10.238,0.36,-0.91,0.10,0.98
10.248,0.40,-0.90,0.11,0.99
10.258,0.47,-0.85,-0.03,0.97
10.268,0.42,-0.85,-0.07,0.95
10.278,0.34,-0.84,-0.12,0.91
10.288,0.22,-0.86,-0.16,0.90
10.298,0.09,-0.79,-0.11,0.80
10.308,0.16,-0.87,-0.19,0.90
10.318,0.05,-0.98,-0.21,1.00
10.328,-0.16,-0.99,-0.28,1.05
10.338,-0.15,-0.95,-0.32,1.02
10.348,-0.12,-0.97,-0.30,1.03
10.358,-0.12,-0.94,-0.32,1.00
10.368,0.02,-0.86,-0.38,0.94
10.379,0.14,-0.88,-0.46,1.00
10.389,0.13,-0.88,-0.50,1.02
10.399,-0.00,-0.85,-0.48,0.98
10.409,-0.03,-0.89,-0.47,1.01
10.419,-0.09,-1.02,-0.45,1.12
10.429,-0.13,-1.16,-0.51,1.28
10.439,-0.17,-1.24,-0.50,1.35
10.449,-0.15,-1.24,-0.42,1.32
10.459,-0.03,-1.21,-0.27,1.24
10.469,0.04,-1.14,-0.23,1.17
10.479,0.14,-1.01,-0.26,1.05
10.489,0.18,-0.88,-0.33,0.95
10.499,0.22,-0.77,-0.32,0.86
10.509,0.23,-0.66,-0.30,0.76
10.520,0.13,-0.58,-0.41,0.72
10.529,0.06,-0.48,-0.54,0.72
10.540,-0.07,-0.39,-0.60,0.72
10.550,-0.22,-0.34,-0.56,0.69
10.560,-0.27,-0.30,-0.56,0.70
10.569,-0.26,-0.26,-0.50,0.62
10.580,-0.18,-0.22,-0.40,0.49
10.590,-0.09,-0.33,-0.27,0.44
10.600,0.08,-0.51,-0.15,0.53
10.610,0.22,-0.69,-0.10,0.73
10.620,0.29,-0.90,-0.13,0.96
10.630,0.35,-0.98,-0.18,1.05
10.640,0.34,-0.98,-0.25,1.07
10.650,0.29,-0.85,-0.34,0.96
10.660,0.18,-0.61,-0.42,0.76
10.670,0.06,-0.41,-0.39,0.57
10.680,-0.16,-0.32,-0.25,0.44
10.690,-0.33,-0.31,-0.13,0.47
10.700,-0.40,-0.28,-0.15,0.51
10.710,-0.47,-0.21,-0.28,0.59
10.721,-0.54,-0.15,-0.33,0.65
10.730,-0.56,-0.12,-0.32,0.65
10.740,-0.48,-0.09,-0.19,0.52
10.751,-0.31,-0.06,-0.06,0.32
10.761,-0.07,-0.06,-0.08,0.13
10.771,0.03,-0.14,-0.17,0.22
10.781,0.05,-0.22,-0.28,0.36
10.791,0.08,-0.23,-0.37,0.44
10.801,0.04,-0.29,-0.42,0.51
10.811,-0.06,-0.29,-0.50,0.58
10.821,-0.09,-0.30,-0.59,0.66
10.831,-0.07,-0.32,-0.58,0.67
10.841,-0.14,-0.29,-0.44,0.54
10.851,-0.20,-0.24,-0.23,0.39
10.861,-0.25,-0.23,-0.09,0.35
10.871,-0.24,-0.22,-0.01,0.32
10.881,-0.25,-0.23,0.07,0.35
10.891,-0.24,-0.23,0.08,0.34
10.902,-0.16,-0.25,0.05,0.31
10.912,-0.04,-0.33,-0.03,0.33
10.922,0.05,-0.40,-0.09,0.41
10.932,0.11,-0.36,-0.07,0.39
10.942,0.16,-0.25,-0.09,0.31
10.952,0.18,-0.19,-0.09,0.27
10.962,0.18,-0.13,-0.02,0.23
10.972,0.12,-0.05,-0.05,0.14
10.982,0.03,-0.03,-0.11,0.11
10.992,-0.10,-0.06,-0.12,0.16
11.002,-0.20,-0.13,-0.13,0.28
11.012,-0.26,-0.16,-0.11,0.32
11.022,-0.32,-0.16,-0.04,0.36
11.032,-0.36,-0.16,-0.03,0.39
11.042,-0.40,-0.19,-0.05,0.45
11.052,-0.41,-0.16,-0.04,0.44
11.062,-0.35,-0.11,0.03,0.36
11.072,-0.20,-0.07,0.04,0.22
11.083,-0.02,-0.09,0.04,0.10
11.092,0.17,-0.12,0.08,0.22
11.103,0.35,-0.10,0.09,0.37
11.113,0.47,-0.07,0.08,0.48
11.123,0.49,0.02,0.07,0.50
11.133,0.41,0.01,0.13,0.43
11.143,0.29,0.05,0.22,0.37
11.153,0.17,0.07,0.21,0.28
11.163,0.09,0.05,0.08,0.13
11.173,0.01,0.06,-0.06,0.09
11.183,0.02,0.08,-0.08,0.11
11.193,0.04,0.09,-0.01,0.10
11.203,0.05,0.15,0.03,0.16
11.213,0.08,0.20,0.06,0.22
11.223,0.10,0.18,0.09,0.22
11.233,0.12,0.09,0.08,0.17
11.243,0.12,0.02,0.05,0.13
11.253,0.11,-0.04,0.01,0.12
11.264,0.04,-0.04,-0.05,0.08
11.274,0.01,-0.03,-0.07,0.07
11.284,-0.02,-0.03,-0.08,0.09
11.294,-0.04,-0.05,-0.11,0.13
11.304,-0.05,-0.11,-0.16,0.20
11.314,-0.03,-0.17,-0.19,0.26
11.324,-0.01,-0.20,-0.19,0.28
11.334,-0.05,-0.19,-0.14,0.24
11.344,-0.04,-0.14,-0.04,0.15
11.354,-0.00,-0.09,-0.00,0.09
11.364,0.05,-0.06,-0.01,0.08
11.374,0.06,0.01,-0.07,0.09
11.384,0.05,0.08,-0.09,0.13
11.394,0.05,0.07,-0.04,0.09
11.404,0.05,0.04,0.03,0.07
11.414,0.09,0.02,0.09,0.13
11.424,0.13,-0.03,0.08,0.15
11.434,0.16,-0.11,0.02,0.19
11.445,0.13,-0.12,-0.07,0.19
11.455,0.04,-0.15,-0.11,0.19
11.465,-0.12,-0.19,-0.07,0.24
11.475,-0.23,-0.29,-0.10,0.39
11.485,-0.28,-0.33,-0.09,0.44
11.495,-0.24,-0.25,-0.05,0.35
11.505,-0.18,-0.07,-0.04,0.19
11.515,-0.12,0.13,-0.06,0.18
11.525,-0.06,0.27,-0.13,0.31
11.535,-0.01,0.34,-0.22,0.40
11.545,0.02,0.34,-0.24,0.42
11.555,0.04,0.25,-0.24,0.35
11.565,0.07,0.10,-0.25,0.28
11.575,0.03,-0.10,-0.23,0.26
11.585,-0.09,-0.25,-0.12,0.29
11.595,-0.15,-0.27,-0.01,0.31
11.606,-0.13,-0.22,0.11,0.28
11.616,-0.10,-0.09,0.12,0.18
11.626,-0.07,0.02,0.04,0.08
11.636,-0.01,0.06,-0.02,0.06
11.646,0.02,0.07,-0.05,0.09
11.656,0.03,0.10,-0.06,0.12
11.666,0.05,0.10,-0.04,0.12
11.676,0.09,0.04,-0.04,0.10
11.686,0.10,-0.05,-0.02,0.11
11.696,0.11,-0.13,0.03,0.17
11.706,0.09,-0.14,0.04,0.17
11.716,0.08,-0.10,0.07,0.15
11.726,0.10,-0.04,0.11,0.15
11.736,0.13,0.06,0.08,0.16
11.746,0.13,0.10,0.01,0.16
11.756,0.10,0.09,-0.03,0.13
11.766,0.03,0.05,-0.07,0.09
11.776,0.01,-0.04,-0.09,0.10
11.786,-0.01,-0.08,-0.07,0.11
11.796,-0.03,-0.08,-0.03,0.09
11.806,-0.04,-0.07,0.02,0.09
11.817,-0.04,-0.06,0.04,0.08
11.827,-0.05,-0.11,0.04,0.13
11.837,-0.04,-0.17,0.06,0.19
11.847,-0.03,-0.16,0.10,0.19
11.857,0.02,-0.08,0.12,0.14
11.867,0.08,-0.02,0.05,0.10
11.877,0.15,0.02,-0.03,0.16
11.887,0.18,0.02,-0.12,0.22
11.897,0.16,0.00,-0.15,0.22
11.907,0.13,-0.02,-0.13,0.19
11.917,0.07,-0.07,-0.07,0.12
11.927,0.02,-0.17,0.01,0.17
11.937,-0.04,-0.21,0.05,0.22
11.947,-0.05,-0.14,0.08,0.17
11.957,-0.02,-0.05,0.06,0.08
11.968,0.02,0.02,0.03,0.04
11.978,0.05,0.08,-0.00,0.10
11.988,0.06,0.10,-0.07,0.13
11.998,0.03,0.06,-0.11,0.13
12.008,0.02,0.02,-0.08,0.09
12.018,0.03,-0.06,-0.04,0.08
12.028,0.02,-0.13,-0.03,0.13
12.038,0.05,-0.09,-0.02,0.11
12.048,0.09,-0.06,-0.03,0.11
12.058,0.10,-0.02,-0.01,0.11
12.068,0.10,0.01,0.02,0.10
12.078,0.08,0.02,0.03,0.09
12.088,0.05,0.05,0.05,0.09
12.098,0.04,0.01,0.06,0.08
12.108,0.03,-0.04,0.07,0.08
12.118,0.02,-0.05,0.06,0.09
12.128,0.05,-0.08,0.08,0.13
12.138,0.07,-0.06,0.08,0.12
12.148,0.08,-0.06,0.04,0.10
12.159,0.06,-0.09,0.01,0.11
12.169,0.05,-0.04,0.01,0.06
12.179,0.06,0.00,-0.03,0.06
12.189,0.08,0.04,-0.06,0.11
12.199,0.11,0.05,-0.07,0.14
12.209,0.11,0.05,-0.10,0.15
12.219,0.11,0.03,-0.08,0.14
12.229,0.09,-0.05,-0.01,0.10
12.239,0.09,-0.11,0.07,0.15
12.249,0.06,-0.09,0.09,0.14
12.259,0.04,-0.00,0.05,0.07
12.269,-0.03,0.05,-0.04,0.07
12.279,-0.09,0.09,-0.05,0.14
12.289,-0.11,0.08,-0.06,0.15
12.299,-0.08,0.00,-0.05,0.09
12.309,-0.03,-0.03,0.04,0.06
12.319,0.01,-0.03,0.07,0.08
12.329,0.09,-0.04,0.07,0.12
12.340,0.16,-0.06,0.03,0.17
12.350,0.18,-0.09,-0.02,0.20
12.360,0.19,-0.16,-0.01,0.24
12.370,0.14,-0.18,0.01,0.23
12.380,0.07,-0.17,0.03,0.19
12.390,0.01,-0.12,0.07,0.14
12.400,-0.03,-0.02,0.11,0.12
12.410,0.03,0.02,0.08,0.08
12.420,0.05,0.04,0.02,0.07
12.430,0.07,0.04,-0.06,0.10
12.440,0.08,-0.01,-0.07,0.10
12.450,0.09,-0.05,-0.07,0.13
12.460,0.11,-0.08,-0.02,0.14
12.470,0.13,-0.09,0.00,0.15
12.480,0.13,-0.09,0.07,0.17
12.490,0.14,-0.07,0.10,0.18
12.500,0.14,-0.04,0.10,0.17
12.510,0.13,0.02,0.09,0.16
12.521,0.12,0.06,0.08,0.16
12.531,0.09,0.07,0.06,0.13
12.541,0.08,0.04,0.05,0.10
12.551,0.05,0.01,0.03,0.06
12.561,0.05,-0.06,0.08,0.11
12.571,0.06,-0.13,0.11,0.18
12.581,0.09,-0.13,0.12,0.20
12.591,0.11,-0.09,0.08,0.16
12.601,0.10,-0.08,0.01,0.13
12.611,0.09,-0.06,-0.02,0.11
12.621,0.07,-0.03,-0.05,0.09
12.631,0.04,0.02,-0.05,0.07
12.641,0.03,0.02,-0.04,0.05
12.651,0.04,-0.01,-0.01,0.04
12.661,0.06,-0.02,0.02,0.07
12.672,0.07,-0.02,0.05,0.09
12.681,0.06,-0.02,0.06,0.08
12.691,0.04,-0.04,0.05,0.08
12.702,0.03,-0.06,0.07,0.09
12.712,0.03,-0.04,0.06,0.08
12.722,0.04,-0.02,0.04,0.06
12.732,0.06,-0.01,-0.01,0.07
12.742,0.07,-0.03,-0.04,0.08
12.752,0.05,-0.03,-0.04,0.07
12.762,0.03,-0.02,-0.02,0.04
12.772,0.04,-0.01,-0.01,0.04
12.782,0.07,-0.04,0.02,0.09
12.792,0.08,-0.06,0.05,0.11
12.802,0.07,-0.04,0.03,0.09
12.812,0.07,-0.01,0.02,0.07
12.822,0.05,0.03,0.03,0.07
12.832,0.09,0.05,0.04,0.11
12.842,0.08,0.04,-0.01,0.09
12.853,0.06,0.02,-0.04,0.08
12.862,0.08,-0.03,0.01,0.09
12.873,0.06,-0.11,0.04,0.13
12.883,0.06,-0.12,0.04,0.14
12.893,0.09,-0.09,-0.01,0.13
12.903,0.07,-0.06,-0.05,0.10
12.913,0.02,-0.02,-0.09,0.09
12.923,-0.03,-0.04,-0.12,0.13
12.933,-0.05,-0.05,-0.07,0.10
12.943,-0.04,-0.05,-0.02,0.07
12.953,0.01,-0.04,0.05,0.06
12.963,0.08,-0.03,0.09,0.13
12.973,0.11,-0.03,0.09,0.15
12.983,0.14,0.01,0.06,0.15
12.993,0.13,0.03,0.01,0.13
13.003,0.12,0.03,0.02,0.12
13.013,0.09,0.03,0.04,0.10
13.023,0.08,-0.01,0.04,0.09
13.034,0.08,-0.04,0.02,0.09
13.044,0.05,-0.04,-0.01,0.07
13.054,0.05,-0.04,-0.04,0.07
13.064,0.02,-0.04,-0.04,0.06
13.074,0.02,-0.04,-0.05,0.07
13.084,0.03,-0.01,-0.04,0.06
13.094,0.05,0.01,-0.04,0.06
13.104,0.07,-0.02,-0.04,0.08
13.114,0.07,-0.05,-0.03,0.09
13.124,0.06,-0.10,-0.00,0.12
13.134,0.05,-0.09,0.01,0.10
13.144,0.03,-0.05,0.02,0.06
13.154,0.02,-0.04,0.00,0.05
13.164,0.02,-0.03,-0.03,0.05
13.174,-0.01,-0.02,-0.07,0.07
13.184,-0.00,-0.00,-0.08,0.08
13.194,-0.02,0.03,-0.09,0.09
13.204,-0.02,0.00,-0.08,0.09
13.214,-0.01,0.01,-0.04,0.04
13.225,0.01,-0.01,-0.02,0.02
13.235,-0.00,-0.00,0.02,0.02
13.245,-0.02,-0.03,0.04,0.06
13.255,-0.03,-0.03,0.04,0.06
13.265,-0.01,-0.03,0.03,0.04
13.275,0.00,-0.03,0.02,0.03
13.285,0.04,-0.08,-0.00,0.09
13.295,0.07,-0.10,-0.02,0.12
13.305,0.10,-0.09,-0.01,0.14
13.315,0.09,-0.04,0.00,0.10
13.325,0.08,0.02,0.01,0.08
13.335,0.05,0.02,-0.01,0.05
13.345,0.01,0.02,-0.05,0.06
13.355,-0.02,-0.01,-0.09,0.10
13.365,-0.03,-0.02,-0.09,0.10
13.375,-0.03,-0.02,-0.02,0.05
13.385,-0.01,-0.03,0.01,0.03
13.395,0.03,-0.02,0.04,0.06
13.406,0.06,-0.01,0.02,0.07
13.416,0.08,0.04,0.02,0.09
13.426,0.05,0.04,0.01,0.07
13.436,0.03,0.02,-0.03,0.04
13.446,0.02,-0.03,-0.05,0.06
13.456,0.02,-0.07,-0.03,0.08
13.466,0.05,-0.08,-0.02,0.10
13.476,0.05,-0.13,-0.01,0.14
13.486,0.01,-0.13,-0.04,0.14
13.496,-0.01,-0.12,-0.04,0.12
13.506,0.00,-0.07,-0.01,0.07
13.516,-0.00,-0.03,-0.03,0.04
13.526,-0.01,-0.00,-0.04,0.04
13.536,0.01,0.03,-0.07,0.08
13.546,0.03,0.02,-0.09,0.10
13.557,0.04,0.01,-0.05,0.07
13.567,0.04,-0.00,-0.04,0.06
13.576,0.02,-0.01,-0.01,0.02
13.587,-0.00,-0.04,-0.02,0.05
13.597,-0.00,-0.08,-0.03,0.08
13.607,0.01,-0.08,-0.04,0.09
13.617,0.03,-0.07,-0.04,0.09
13.627,0.03,-0.04,-0.02,0.06
13.637,0.03,-0.01,-0.03,0.04
13.647,0.06,0.01,-0.05,0.08
13.657,0.08,0.01,-0.07,0.10
13.667,0.05,-0.00,-0.06,0.08
13.677,0.06,-0.00,-0.06,0.08
13.687,0.06,-0.03,-0.03,0.07
13.697,0.04,-0.03,0.01,0.05
13.707,0.02,0.00,0.02,0.03
13.717,0.02,0.02,0.01,0.03
13.727,0.01,0.02,-0.02,0.03
13.738,0.02,-0.00,-0.05,0.05
13.747,0.03,0.01,-0.05,0.06
13.758,0.06,0.01,-0.03,0.07
13.768,0.05,-0.01,0.02,0.06
13.778,0.01,-0.05,0.04,0.06
13.788,-0.02,-0.10,0.06,0.11
13.798,-0.02,-0.13,0.09,0.16
13.808,0.01,-0.10,0.10,0.14
13.818,0.05,-0.03,0.06,0.09
13.828,0.09,0.00,0.05,0.10
13.838,0.10,-0.01,-0.01,0.10
13.848,0.09,-0.02,-0.01,0.09
13.858,0.07,-0.05,0.01,0.08
13.868,0.05,-0.08,0.03,0.10
13.878,0.02,-0.10,0.03,0.11
13.888,-0.00,-0.08,0.05,0.09
13.898,0.02,-0.05,0.05,0.08
13.908,0.05,-0.02,0.07,0.09
13.918,0.07,-0.03,0.08,0.11
13.928,0.03,-0.02,0.10,0.11
13.939,0.06,-0.01,0.12,0.13
13.949,0.11,-0.01,0.09,0.15
13.959,0.13,-0.00,0.02,0.13
13.969,0.13,-0.02,0.02,0.14
13.979,0.10,-0.02,0.08,0.13
13.989,0.08,-0.08,0.08,0.14
13.999,0.06,-0.09,0.10,0.15
14.009,0.08,-0.07,0.08,0.13
14.019,0.06,-0.05,0.07,0.11
14.029,0.07,-0.02,0.05,0.09
14.039,0.08,-0.03,0.04,0.10
14.049,0.08,-0.06,0.00,0.10
14.059,0.06,-0.08,-0.00,0.10
14.069,0.04,-0.06,0.04,0.09
14.079,0.06,-0.01,0.09,0.11
14.089,0.09,0.03,0.09,0.13
14.099,0.10,0.04,0.06,0.13
14.109,0.12,0.04,0.03,0.13
14.120,0.13,-0.03,0.03,0.14
14.130,0.11,-0.10,0.06,0.16
14.140,0.11,-0.10,0.10,0.18
14.150,0.14,-0.07,0.11,0.19
14.160,0.14,-0.02,0.11,0.18
14.170,0.11,-0.00,0.12,0.16
14.180,0.09,0.02,0.10,0.14
14.190,0.09,-0.02,0.08,0.12
14.200,0.06,-0.07,0.07,0.12
14.210,0.01,-0.09,0.07,0.12
14.220,0.01,-0.09,0.05,0.11
14.230,-0.02,-0.04,-0.01,0.05
14.240,-0.03,0.03,-0.06,0.07
14.250,-0.02,0.08,-0.07,0.10
14.260,-0.02,0.08,-0.04,0.10
14.270,-0.02,0.06,-0.03,0.07
14.280,-0.04,0.01,-0.03,0.05
14.291,0.01,-0.04,0.02,0.05
14.301,0.10,-0.08,0.01,0.13
14.311,0.10,-0.12,-0.00,0.15
14.321,0.08,-0.15,0.03,0.17
14.331,0.07,-0.15,0.03,0.17
14.341,0.08,-0.16,0.06,0.19
14.351,0.06,-0.13,0.11,0.18
14.361,0.06,-0.05,0.14,0.16
14.371,0.08,0.02,0.13,0.15
14.381,0.10,0.00,0.09,0.13
14.391,0.10,-0.04,0.07,0.13
14.401,0.10,-0.05,0.05,0.12
14.411,0.09,-0.00,0.01,0.09
14.421,0.08,0.01,-0.02,0.08
14.431,0.04,0.04,-0.01,0.05
14.442,0.01,0.08,-0.04,0.09
14.452,-0.01,0.09,-0.07,0.11
14.461,-0.05,0.07,-0.09,0.13
14.472,-0.07,0.03,-0.07,0.10
14.482,-0.02,0.01,-0.04,0.05
14.492,0.06,-0.01,-0.00,0.06
14.502,0.10,-0.04,-0.02,0.11
14.512,0.14,-0.07,-0.04,0.16
14.522,0.15,-0.10,-0.03,0.18
14.532,0.15,-0.10,-0.03,0.18
14.542,0.14,-0.07,-0.01,0.16
14.552,0.14,-0.05,-0.01,0.15
14.562,0.12,-0.06,0.02,0.14
14.572,0.09,-0.07,0.04,0.12
14.582,0.08,-0.05,0.03,0.10
14.592,0.10,-0.08,0.05,0.13
14.602,0.14,-0.12,0.10,0.21
14.612,0.18,-0.12,0.14,0.26
14.622,0.23,-0.05,0.14,0.27
14.632,0.30,0.00,0.13,0.33
14.643,0.32,0.10,0.08,0.34
14.652,0.29,0.17,-0.01,0.34
14.663,0.23,0.17,-0.07,0.29
14.673,0.17,0.13,-0.07,0.23
14.683,0.14,0.08,-0.07,0.17
14.693,0.11,0.01,-0.05,0.13
14.703,0.12,-0.07,-0.03,0.14
14.713,0.13,-0.09,0.03,0.16
14.723,0.18,-0.08,0.07,0.21
14.733,0.21,-0.05,0.05,0.22
14.743,0.23,-0.00,0.04,0.23
14.753,0.22,-0.01,0.01,0.22
14.763,0.19,-0.03,-0.00,0.19
14.773,0.13,-0.03,0.01,0.13
14.783,0.07,-0.04,0.02,0.09
14.793,0.04,-0.05,0.03,0.07
14.803,0.03,-0.06,0.04,0.08
14.813,0.06,-0.01,0.02,0.07
14.824,0.06,0.01,-0.03,0.07
14.834,0.03,0.03,-0.09,0.10
14.844,0.04,0.03,-0.08,0.10
14.854,0.06,0.09,-0.05,0.12
14.864,0.08,0.09,-0.05,0.13
14.874,0.09,0.02,-0.04,0.10
14.884,0.06,-0.06,-0.01,0.08
14.894,0.04,-0.11,-0.01,0.12
14.904,0.01,-0.13,-0.03,0.13
14.914,0.03,-0.13,-0.02,0.13
14.924,0.07,-0.09,0.00,0.11
14.934,0.09,-0.02,0.03,0.10
14.944,0.07,0.03,0.01,0.08
14.954,0.07,0.03,-0.05,0.09
14.965,0.03,-0.02,-0.08,0.09
14.974,0.02,-0.05,-0.06,0.08
14.984,0.02,-0.04,-0.05,0.07
14.994,0.07,-0.07,-0.06,0.12
15.005,0.07,-0.07,-0.05,0.11
15.015,0.07,-0.03,-0.01,0.07
15.025,0.07,0.03,-0.00,0.07
15.035,0.04,0.06,-0.06,0.10
15.045,-0.01,0.09,-0.08,0.12
15.055,-0.02,0.08,-0.06,0.10
15.065,-0.04,0.06,-0.04,0.08
15.075,-0.04,0.07,-0.04,0.09
15.085,-0.01,0.05,-0.07,0.09
15.095,-0.02,0.04,-0.09,0.10
15.105,-0.00,-0.04,-0.05,0.07
15.115,-0.00,-0.15,0.02,0.15
15.125,-0.04,-0.17,0.06,0.19
15.135,-0.07,-0.14,0.07,0.17
15.145,-0.03,-0.12,0.10,0.15
15.156,0.04,-0.11,0.09,0.14
15.166,0.09,-0.09,-0.01,0.13
15.176,0.08,-0.08,-0.11,0.16
15.186,0.03,-0.06,-0.13,0.15
15.196,-0.04,-0.04,-0.12,0.13
15.206,-0.09,-0.01,-0.07,0.11
15.216,-0.09,-0.00,-0.04,0.10
15.226,-0.03,0.00,-0.01,0.03
15.236,0.01,0.02,0.01,0.02
15.246,0.03,0.06,0.01,0.07
15.256,0.04,0.03,-0.00,0.05
15.266,0.05,-0.02,-0.01,0.05
15.276,0.05,-0.02,-0.05,0.07
15.286,-0.00,-0.05,-0.08,0.09
15.296,-0.03,-0.06,-0.06,0.09
15.306,-0.05,-0.07,-0.05,0.10
15.316,-0.03,-0.06,-0.03,0.07
15.326,-0.03,-0.03,-0.04,0.06
15.337,-0.02,-0.03,-0.05,0.06
15.346,-0.04,-0.03,-0.06,0.08
15.357,-0.05,-0.05,-0.05,0.09
15.367,-0.03,-0.04,-0.05,0.07
15.377,-0.03,-0.02,-0.03,0.04
15.387,-0.01,-0.02,0.00,0.03
15.397,-0.00,-0.02,0.03,0.04
15.407,0.00,0.00,0.03,0.04
15.417,0.02,0.01,0.02,0.03
15.427,0.03,0.01,-0.00,0.04
15.437,0.05,-0.02,-0.04,0.07
15.447,0.04,-0.04,-0.06,0.08
15.457,0.02,-0.06,-0.05,0.08
15.467,0.02,-0.05,-0.03,0.06
15.477,0.02,-0.03,-0.02,0.04
15.487,0.01,-0.01,-0.01,0.02
15.497,0.01,-0.00,-0.01,0.01
15.507,0.00,-0.01,-0.04,0.05
15.517,0.00,-0.01,-0.04,0.04
15.528,0.01,-0.02,-0.03,0.04
15.538,0.00,-0.04,-0.03,0.05
15.548,0.02,-0.07,0.01,0.08
15.558,0.03,-0.08,0.05,0.10
15.568,0.04,-0.08,0.04,0.10
15.578,0.03,-0.07,-0.00,0.08
15.588,0.02,-0.08,0.00,0.08
15.598,0.03,-0.04,0.04,0.06
15.608,0.02,-0.01,0.05,0.06
15.618,0.04,0.02,0.05,0.06
15.628,0.07,0.00,0.04,0.08
15.638,0.07,-0.02,0.04,0.08
15.648,0.05,-0.06,0.04,0.09
15.658,0.09,-0.12,0.02,0.15
15.668,0.08,-0.14,0.01,0.16
15.678,0.05,-0.13,0.05,0.15
15.688,0.02,-0.09,0.07,0.11
15.699,0.00,-0.04,0.12,0.12
15.709,0.01,0.01,0.12,0.12
15.719,-0.00,0.06,0.09,0.11
15.729,0.00,0.06,0.06,0.09
15.739,0.00,0.03,0.04,0.06
15.749,0.01,0.01,0.04,0.04
15.759,0.04,-0.02,0.04,0.06
15.769,0.06,-0.07,0.05,0.10
15.779,0.05,-0.08,0.06,0.11
15.789,0.03,-0.04,0.05,0.06
15.799,0.02,-0.01,0.02,0.03
15.809,0.03,-0.04,0.02,0.05
15.819,0.04,-0.05,0.04,0.07
15.829,0.06,-0.06,0.06,0.10
15.839,0.10,-0.03,0.08,0.13
15.849,0.12,0.01,0.06,0.13
15.859,0.10,-0.05,0.04,0.12
15.870,0.05,-0.09,0.03,0.11
15.879,0.02,-0.10,0.03,0.11
15.890,0.03,-0.07,0.04,0.09
15.900,0.02,-0.02,0.06,0.07
15.910,0.03,-0.02,0.06,0.07
15.920,0.01,-0.01,0.06,0.06
15.930,0.00,0.01,0.07,0.07
15.940,0.02,-0.01,0.07,0.07
15.950,0.03,-0.04,0.06,0.07
15.960,0.02,-0.07,0.05,0.09
15.970,0.05,-0.08,0.08,0.12
15.980,0.08,-0.07,0.10,0.14
15.990,0.09,-0.04,0.08,0.13
16.000,0.11,-0.01,0.05,0.12
16.010,0.09,0.01,0.02,0.09
16.020,0.08,0.04,0.01,0.09
16.030,0.08,0.03,0.00,0.08
16.040,0.04,0.01,0.02,0.04
16.051,0.01,-0.02,0.04,0.04
16.061,-0.01,-0.05,0.03,0.06
16.071,-0.03,-0.06,0.02,0.07
16.081,-0.00,-0.06,0.01,0.07
16.091,0.04,-0.06,-0.00,0.07
16.101,0.03,-0.04,-0.05,0.07
16.111,-0.01,-0.03,-0.07,0.08
16.121,-0.02,-0.04,-0.01,0.04
16.131,-0.03,-0.05,0.05,0.08
16.141,-0.03,-0.08,0.06,0.10
16.151,-0.01,-0.07,0.04,0.08
16.161,0.03,-0.06,0.03,0.07
16.171,0.06,-0.05,0.00,0.08
16.181,0.07,-0.05,-0.01,0.09
16.191,0.07,-0.03,0.02,0.08
16.201,0.06,-0.01,0.02,0.07
16.211,0.03,0.02,0.02,0.04
16.221,0.03,0.00,0.01,0.03
16.232,-0.00,-0.03,0.01,0.03
16.242,-0.00,-0.05,-0.01,0.06
16.252,0.00,-0.05,-0.02,0.05
16.262,-0.01,-0.04,-0.04,0.05
16.272,-0.00,-0.02,-0.04,0.04
16.282,-0.02,-0.04,-0.05,0.07
16.292,-0.03,-0.06,-0.06,0.09
16.302,-0.04,-0.06,-0.05,0.09
16.312,-0.04,-0.05,-0.00,0.06
16.322,-0.01,-0.06,0.02,0.06
16.332,-0.01,-0.07,0.01,0.07
16.342,0.02,-0.06,0.03,0.07
16.352,0.04,-0.04,0.01,0.05
16.362,0.06,0.01,-0.03,0.07
16.372,0.04,0.02,-0.06,0.08
16.382,0.04,0.02,-0.08,0.09
16.392,0.01,-0.00,-0.07,0.07
16.402,-0.01,-0.04,-0.02,0.05
16.413,0.00,-0.07,-0.01,0.07
16.422,-0.01,-0.06,-0.03,0.07
16.433,-0.02,-0.05,-0.02,0.06
16.443,-0.01,-0.04,-0.02,0.04
16.453,-0.01,-0.03,-0.02,0.04
16.463,-0.02,-0.04,-0.01,0.04
16.473,-0.02,-0.04,0.01,0.04
16.483,-0.02,-0.05,0.01,0.05
16.493,-0.00,-0.06,0.00,0.06
16.503,0.04,-0.09,0.01,0.10
16.513,0.05,-0.09,0.00,0.11
16.523,0.08,-0.05,0.02,0.10
16.533,0.05,-0.00,0.01,0.06
16.543,0.06,0.01,-0.01,0.06
16.553,0.04,-0.00,-0.02,0.05
16.563,0.02,0.01,-0.04,0.05
16.573,0.01,0.03,-0.01,0.03
16.583,0.02,0.03,0.02,0.04
16.593,0.03,0.06,0.01,0.07
16.604,0.01,0.06,-0.02,0.06
16.614,0.01,0.03,-0.05,0.06
16.624,-0.01,-0.01,-0.08,0.08
16.634,-0.04,-0.04,-0.06,0.08
16.644,-0.03,-0.10,0.02,0.10
16.654,-0.03,-0.11,0.05,0.13
16.664,0.03,-0.10,0.05,0.11
16.674,0.05,-0.08,0.06,0.11
16.684,0.07,-0.07,0.02,0.10
16.694,0.07,-0.08,-0.01,0.11
16.704,0.06,-0.10,-0.03,0.12
16.714,0.04,-0.09,0.01,0.10
16.724,0.04,-0.07,0.05,0.09
16.734,0.04,-0.05,0.07,0.10
16.744,0.06,-0.04,0.08,0.11
16.754,0.07,-0.03,0.07,0.11
16.764,0.07,-0.02,0.07,0.10
16.774,0.08,-0.01,0.04,0.09
16.784,0.05,0.00,0.03,0.06
16.795,0.04,-0.00,0.03,0.05
16.805,0.05,-0.02,0.05,0.08
16.815,0.06,-0.03,0.06,0.09
16.825,0.06,-0.01,0.05,0.08
16.835,0.06,-0.02,0.05,0.08
16.845,0.05,-0.04,0.05,0.08
16.855,0.07,-0.07,0.04,0.10
16.865,0.08,-0.06,0.01,0.10
16.875,0.10,-0.04,-0.01,0.11
16.885,0.11,-0.01,0.02,0.11
16.895,0.10,-0.00,0.05,0.11
16.905,0.08,0.01,0.05,0.09
16.915,0.06,-0.01,0.02,0.07
16.925,0.05,-0.02,-0.01,0.05
16.936,0.05,0.01,-0.05,0.07
16.946,0.04,0.04,-0.07,0.09
16.956,0.01,0.07,-0.05,0.09
16.966,0.00,0.07,-0.02,0.08
16.976,-0.00,0.04,0.02,0.04
16.986,0.02,-0.01,0.04,0.05
16.996,0.04,-0.06,0.00,0.07
17.006,0.07,-0.06,-0.01,0.09
17.016,0.05,-0.08,-0.01,0.10
17.026,0.04,-0.10,0.01,0.10
17.036,0.06,-0.07,0.03,0.10
17.046,0.09,-0.04,0.03,0.10
17.056,0.09,-0.00,-0.02,0.09
17.066,0.08,0.00,-0.06,0.10
17.076,0.06,-0.02,-0.08,0.10
17.086,0.04,-0.04,-0.05,0.07
17.096,0.02,-0.08,-0.02,0.09
17.106,0.03,-0.09,0.02,0.10
17.117,0.03,-0.07,0.06,0.10
17.126,0.06,-0.02,0.06,0.08
17.137,0.08,0.03,0.07,0.11
17.147,0.09,0.05,0.01,0.11
17.157,0.08,0.06,-0.00,0.10
17.167,0.08,0.05,-0.01,0.10
17.177,0.10,0.04,-0.03,0.12
17.187,0.11,0.01,-0.05,0.12
17.197,0.10,0.02,-0.07,0.12
17.207,0.11,-0.00,-0.08,0.14
17.217,0.09,-0.04,-0.10,0.14
17.227,0.09,-0.05,-0.05,0.12
17.237,0.13,-0.04,-0.01,0.14
17.247,0.14,-0.00,0.01,0.14
17.257,0.14,0.02,-0.00,0.14
17.267,0.11,0.07,-0.06,0.14
17.277,0.09,0.07,-0.12,0.17
17.287,0.06,0.06,-0.18,0.20
17.298,0.04,0.04,-0.20,0.21
17.307,0.01,-0.01,-0.22,0.22
17.318,-0.00,-0.03,-0.24,0.24
17.328,-0.02,-0.03,-0.24,0.24
17.338,-0.02,0.03,-0.25,0.25
17.348,-0.05,0.10,-0.26,0.29
17.358,-0.09,0.16,-0.28,0.33
17.368,-0.10,0.17,-0.31,0.37
17.378,-0.11,0.16,-0.36,0.41
17.388,-0.13,0.15,-0.43,0.48
17.398,-0.15,0.18,-0.48,0.53
17.408,-0.19,0.16,-0.47,0.53
17.418,-0.21,0.07,-0.44,0.49
17.428,-0.21,0.04,-0.40,0.46
17.438,-0.19,0.06,-0.42,0.47
17.448,-0.17,0.06,-0.46,0.50
17.459,-0.21,0.10,-0.53,0.58
17.468,-0.25,0.16,-0.61,0.68
17.479,-0.28,0.16,-0.60,0.69
17.489,-0.28,0.14,-0.59,0.67
17.499,-0.24,0.10,-0.53,0.59
17.509,-0.21,0.07,-0.46,0.51
17.519,-0.15,0.09,-0.41,0.45
17.529,-0.10,0.11,-0.31,0.34
17.539,-0.07,0.10,-0.24,0.27
17.549,-0.01,0.02,-0.15,0.16
17.559,0.07,-0.09,-0.09,0.15
17.569,0.20,-0.16,-0.02,0.26
17.579,0.35,-0.15,0.02,0.38
17.589,0.46,-0.09,0.05,0.47
17.599,0.48,-0.05,0.01,0.48
17.609,0.39,-0.04,-0.02,0.40
17.619,0.28,-0.02,-0.00,0.28
17.629,0.20,-0.05,0.06,0.22
17.640,0.18,-0.07,0.16,0.25
17.649,0.22,-0.05,0.21,0.31
17.659,0.28,-0.03,0.21,0.35
17.670,0.28,-0.02,0.20,0.35
17.680,0.18,-0.02,0.15,0.24
17.690,0.05,-0.07,0.17,0.19
17.700,-0.05,-0.12,0.25,0.28
17.710,-0.13,-0.21,0.20,0.31
17.720,-0.22,-0.22,0.15,0.35
17.730,-0.20,-0.24,0.09,0.33
17.740,-0.14,-0.20,0.10,0.26
17.750,-0.11,-0.09,0.11,0.18
17.760,-0.14,-0.04,0.01,0.14
17.770,-0.18,-0.04,-0.02,0.19
17.780,-0.23,-0.04,-0.01,0.23
17.790,-0.21,-0.09,0.13,0.27
17.800,-0.13,-0.20,0.24,0.33
17.810,0.01,-0.29,0.33,0.44
17.820,0.14,-0.32,0.41,0.54
17.831,0.24,-0.30,0.40,0.55
17.841,0.24,-0.24,0.33,0.48
17.851,0.21,-0.18,0.28,0.39
17.861,0.16,-0.08,0.23,0.29
17.871,0.06,0.03,0.17,0.18
17.881,-0.09,0.08,0.15,0.19
17.891,-0.22,0.02,0.25,0.33
17.901,-0.19,-0.06,0.25,0.32
17.911,-0.04,-0.13,0.34,0.37
17.921,0.14,-0.10,0.40,0.43
17.931,0.27,-0.04,0.31,0.41
17.941,0.33,-0.01,0.21,0.39
17.951,0.27,0.02,0.15,0.31
17.961,0.13,-0.01,0.14,0.19
17.971,-0.06,-0.12,0.15,0.20
17.981,-0.05,-0.32,0.27,0.42
17.991,0.20,-0.43,0.43,0.64
18.001,0.42,-0.28,0.41,0.65
18.011,0.74,0.11,0.41,0.86
18.022,0.55,0.07,0.33,0.65
18.032,0.13,-0.17,0.26,0.34
18.042,-0.16,-0.31,0.23,0.42
18.052,-0.20,-0.29,0.23,0.43
18.062,-0.11,-0.21,0.27,0.36
18.072,0.05,-0.10,0.30,0.32
18.082,0.15,-0.05,0.29,0.33
18.092,0.21,-0.02,0.23,0.32
18.102,0.23,0.03,0.14,0.27
18.112,0.18,0.07,0.11,0.22
18.122,0.09,0.04,0.07,0.13
18.132,0.02,-0.01,0.12,0.12
18.142,-0.00,-0.05,0.17,0.18
18.152,-0.02,-0.05,0.22,0.23
18.162,-0.03,-0.05,0.23,0.24
18.172,-0.02,-0.09,0.25,0.27
18.183,0.07,-0.08,0.18,0.21
18.192,0.10,-0.00,0.11,0.14
18.203,0.06,0.00,0.05,0.08
18.213,0.01,-0.04,0.04,0.06
18.223,0.01,-0.07,0.07,0.09
18.233,0.06,-0.06,0.08,0.11
18.243,0.09,-0.05,0.08,0.13
18.253,0.12,0.00,0.05,0.13
18.263,0.15,0.08,0.03,0.17
18.273,0.12,0.07,-0.00,0.14
18.283,0.06,0.01,-0.02,0.06
18.293,0.02,-0.08,-0.00,0.08
18.303,0.03,-0.15,0.01,0.15
18.313,0.07,-0.15,0.06,0.18
18.323,0.06,-0.14,0.06,0.16
18.333,0.05,-0.17,0.15,0.23
18.343,0.12,-0.07,-0.02,0.13
18.353,0.09,0.13,0.01,0.16
18.363,0.06,0.09,0.12,0.16
18.374,0.13,0.07,-0.03,0.15
18.384,0.15,0.03,-0.06,0.17
18.394,0.22,0.03,-0.00,0.22
