time,ax,ay,az,atotal
0.000,0.14,0.05,0.03,0.15
0.010,0.11,0.03,0.02,0.11
0.020,0.05,0.00,0.04,0.06
0.030,0.01,-0.05,0.04,0.07
0.040,-0.04,-0.09,0.03,0.11
0.050,-0.05,-0.08,0.02,0.10
0.060,-0.00,-0.04,0.00,0.04
0.070,0.04,-0.00,-0.01,0.05
0.080,0.05,0.00,-0.04,0.06
0.090,0.02,-0.01,-0.06,0.06
0.101,-0.01,-0.06,-0.05,0.08
0.111,0.00,-0.07,0.00,0.07
0.121,0.04,0.02,0.03,0.05
0.131,0.03,0.14,-0.05,0.15
0.141,-0.07,0.02,-0.00,0.08
0.151,-0.08,-0.04,0.01,0.09
0.161,-0.13,-0.03,-0.01,0.14
0.171,-0.16,-0.00,-0.03,0.16
0.181,0.02,0.38,-0.13,0.40
0.191,-0.21,0.27,-0.14,0.37
0.201,-0.13,0.01,-0.01,0.13
0.211,0.05,-0.01,0.08,0.10
0.221,0.15,-0.04,0.10,0.19
0.231,0.25,-0.11,0.07,0.29
0.241,0.24,-0.15,0.03,0.28
0.251,0.22,-0.11,-0.02,0.25
0.262,0.17,-0.08,0.01,0.19
0.272,0.13,-0.04,0.02,0.14
0.281,0.10,0.01,0.01,0.10
0.292,0.09,0.04,-0.02,0.10
0.302,0.04,0.04,-0.06,0.08
0.312,0.01,0.05,-0.07,0.09
0.322,-0.00,0.02,0.03,0.04
0.332,-0.01,0.02,0.06,0.06
0.342,-0.03,-0.05,0.02,0.06
0.352,-0.01,-0.02,0.02,0.03
0.362,0.02,0.02,0.05,0.06
0.372,0.03,-0.02,0.01,0.03
0.382,0.10,-0.02,0.03,0.11
0.392,0.06,-0.01,0.03,0.07
0.402,0.04,-0.02,0.00,0.04
0.412,0.03,-0.01,0.03,0.04
0.422,0.01,-0.00,-0.02,0.02
0.432,0.01,-0.01,-0.04,0.04
0.442,0.00,0.01,-0.03,0.03
0.453,0.05,0.02,-0.05,0.07
0.463,0.07,0.00,-0.03,0.07
0.473,0.05,-0.02,-0.02,0.06
0.483,0.05,-0.03,-0.00,0.06
0.493,0.00,-0.06,0.03,0.07
0.503,-0.04,-0.06,0.08,0.11
0.513,-0.07,-0.03,0.08,0.11
0.523,-0.08,-0.02,0.09,0.12
0.533,-0.06,-0.01,0.07,0.09
0.543,-0.03,-0.02,0.01,0.04
0.553,0.01,-0.02,-0.01,0.02
0.563,0.08,-0.01,-0.00,0.08
0.573,0.15,-0.00,-0.04,0.16
0.583,0.17,0.01,-0.07,0.18
0.593,0.15,0.01,-0.04,0.15
0.603,0.16,0.01,-0.00,0.16
0.613,0.12,-0.01,0.06,0.13
0.624,0.07,-0.02,0.10,0.12
0.634,0.03,-0.03,0.11,0.12
0.644,0.01,-0.06,0.13,0.15
0.654,-0.03,-0.07,0.17,0.19
0.664,-0.04,-0.09,0.18,0.21
0.674,-0.07,-0.10,0.17,0.21
0.684,-0.09,-0.10,0.17,0.22
0.694,-0.08,-0.07,0.15,0.19
0.704,-0.04,-0.04,0.13,0.14
0.714,0.02,-0.01,0.07,0.07
0.724,0.06,0.02,-0.02,0.06
0.734,0.08,0.02,-0.08,0.11
0.744,0.09,0.02,-0.12,0.16
0.754,0.10,0.02,-0.15,0.18
0.764,0.10,0.01,-0.15,0.18
0.774,0.08,-0.00,-0.13,0.16
0.784,0.06,0.03,-0.14,0.15
0.794,0.03,0.05,-0.13,0.14
0.805,-0.01,0.05,-0.09,0.11
0.815,-0.00,0.05,-0.05,0.07
0.825,0.03,0.02,-0.01,0.03
0.835,0.05,0.00,0.02,0.06
0.845,0.07,-0.01,0.04,0.08
0.855,0.06,-0.02,0.04,0.08
0.865,0.05,-0.03,0.04,0.07
0.875,0.04,-0.03,0.06,0.08
0.885,0.04,-0.05,0.07,0.10
0.895,0.04,-0.06,0.07,0.10
0.905,0.05,-0.03,0.10,0.12
0.915,0.03,-0.05,0.10,0.12
0.925,0.03,-0.05,0.12,0.13
0.936,0.08,-0.05,0.10,0.14
0.945,0.13,-0.03,0.07,0.15
0.955,0.18,-0.01,0.10,0.21
0.965,0.20,-0.01,0.13,0.24
0.975,0.18,-0.01,0.14,0.22
0.986,0.12,-0.01,0.11,0.16
0.995,0.06,-0.01,0.06,0.09
1.006,0.01,-0.01,-0.00,0.01
1.015,-0.02,-0.02,-0.05,0.06
1.026,-0.01,-0.01,-0.10,0.10
1.036,-0.02,0.02,-0.15,0.15
1.046,-0.03,0.05,-0.13,0.14
1.056,-0.06,0.05,-0.08,0.11
1.066,-0.07,0.04,-0.04,0.08
1.076,-0.08,0.05,-0.08,0.13
1.086,-0.09,0.04,-0.16,0.19
1.096,-0.12,0.04,-0.20,0.24
1.106,-0.16,0.05,-0.25,0.30
1.116,-0.20,0.04,-0.21,0.29
1.126,-0.20,-0.00,-0.11,0.23
1.136,-0.09,-0.02,-0.01,0.10
1.146,-0.01,-0.01,0.03,0.04
1.156,0.02,0.03,0.00,0.04
1.167,0.03,0.05,-0.01,0.06
1.176,0.01,0.06,-0.01,0.06
1.187,0.02,0.03,0.00,0.04
1.197,0.02,-0.03,-0.00,0.03
1.207,0.02,-0.05,0.02,0.06
1.217,0.06,-0.07,0.08,0.13
1.227,0.11,-0.09,0.15,0.21
1.237,0.19,-0.10,0.18,0.28
1.247,0.22,-0.06,0.13,0.26
1.257,0.21,-0.05,0.10,0.24
1.267,0.20,-0.03,0.05,0.20
1.277,0.16,-0.00,-0.02,0.16
1.287,0.12,-0.00,-0.03,0.12
1.297,0.08,-0.01,0.01,0.09
1.307,0.08,-0.03,0.03,0.09
1.317,0.06,0.01,0.02,0.07
1.327,0.03,0.00,0.01,0.03
1.337,-0.01,0.02,-0.01,0.02
1.348,-0.05,0.02,-0.02,0.06
1.357,-0.09,0.02,-0.03,0.10
1.368,-0.10,0.03,-0.04,0.11
1.378,-0.09,0.03,-0.03,0.10
1.388,-0.03,0.02,-0.01,0.04
1.398,-0.00,0.01,-0.01,0.01
1.408,0.06,-0.02,0.02,0.07
1.418,0.10,-0.02,0.01,0.10
1.428,0.10,0.00,-0.02,0.10
1.438,0.07,0.01,-0.05,0.08
1.448,0.03,0.03,-0.08,0.09
1.458,-0.00,0.03,-0.09,0.09
1.468,0.01,0.02,-0.06,0.06
1.478,0.05,0.01,-0.05,0.07
1.488,0.13,0.02,0.00,0.13
1.498,0.15,0.01,0.02,0.15
1.508,0.15,-0.01,0.01,0.15
1.518,0.10,-0.04,0.01,0.11
1.529,0.05,-0.04,0.02,0.07
1.539,0.03,-0.03,0.06,0.07
1.548,0.03,-0.06,0.06,0.09
1.559,0.06,-0.06,0.06,0.10
1.569,0.06,-0.03,0.05,0.09
1.579,0.05,-0.03,0.05,0.07
1.589,0.03,-0.00,0.06,0.07
1.599,0.02,-0.00,0.07,0.07
1.609,0.01,-0.00,0.07,0.07
1.619,0.01,-0.02,0.07,0.07
1.629,0.01,-0.04,0.03,0.05
1.639,0.00,-0.03,-0.03,0.04
1.649,0.00,0.01,-0.06,0.06
1.659,0.00,0.05,-0.06,0.08
1.669,0.03,0.05,-0.03,0.06
1.679,0.05,0.04,-0.02,0.07
1.689,0.07,0.04,-0.03,0.08
1.699,0.01,0.00,-0.03,0.03
1.709,-0.01,-0.03,-0.03,0.04
1.720,-0.01,-0.03,-0.02,0.04
1.730,0.01,-0.02,-0.01,0.03
1.740,0.02,-0.02,0.00,0.03
1.750,0.06,-0.00,0.02,0.07
1.760,0.09,-0.01,0.04,0.10
1.770,0.10,-0.03,0.03,0.11
1.780,0.08,-0.02,-0.00,0.09
1.790,0.07,-0.01,-0.05,0.08
1.800,0.06,0.03,-0.09,0.11
1.810,0.02,0.05,-0.11,0.12
1.820,0.02,0.05,-0.10,0.11
1.830,0.02,0.04,-0.08,0.10
1.840,0.02,0.02,-0.05,0.06
1.850,0.05,-0.01,-0.03,0.06
1.860,0.04,-0.02,-0.04,0.06
1.871,0.05,-0.00,-0.02,0.05
1.880,0.04,0.00,-0.00,0.04
1.891,0.03,0.03,0.02,0.04
1.901,0.02,0.04,-0.00,0.04
1.911,-0.01,0.03,-0.02,0.04
1.921,-0.04,-0.01,-0.01,0.04
1.931,-0.04,-0.02,0.02,0.05
1.941,-0.01,-0.05,0.03,0.06
1.951,0.05,-0.06,0.05,0.09
1.961,0.09,-0.02,0.04,0.10
1.971,0.11,-0.02,0.01,0.11
1.981,0.10,-0.02,0.02,0.10
1.991,0.07,-0.03,0.03,0.08
2.001,0.03,-0.01,0.03,0.05
2.011,0.01,-0.00,0.02,0.03
2.021,0.02,0.03,0.00,0.04
2.031,0.04,0.03,-0.00,0.05
2.041,0.07,0.00,-0.01,0.07
2.051,0.05,0.01,-0.03,0.06
2.062,0.03,0.00,0.00,0.03
2.072,0.03,-0.03,0.01,0.04
2.082,0.01,-0.08,0.03,0.08
2.092,0.04,-0.07,0.03,0.09
2.102,0.08,-0.08,0.04,0.12
2.112,0.09,-0.04,0.03,0.10
2.122,0.08,-0.02,0.02,0.08
2.132,0.06,0.00,0.02,0.06
2.142,0.05,0.01,0.06,0.08
2.152,0.04,-0.00,0.06,0.07
2.162,0.01,-0.01,0.05,0.06
2.172,0.00,-0.02,0.04,0.04
2.182,0.00,-0.03,0.04,0.05
2.192,-0.01,-0.04,-0.01,0.04
2.202,0.00,-0.03,-0.03,0.04
2.212,0.03,-0.01,0.00,0.03
2.222,0.06,0.00,0.02,0.06
2.232,0.07,-0.00,0.03,0.08
2.242,0.07,-0.00,0.01,0.07
2.253,0.03,-0.00,-0.00,0.03
2.263,0.00,0.00,-0.01,0.01
2.273,0.01,0.02,0.03,0.04
2.283,0.05,-0.00,0.07,0.09
2.293,0.06,-0.02,0.11,0.13
2.303,0.07,-0.05,0.10,0.13
2.313,0.06,-0.04,0.04,0.08
2.323,-0.00,-0.05,0.02,0.05
2.333,-0.01,-0.03,0.03,0.04
2.343,-0.01,-0.01,-0.01,0.02
2.353,0.02,0.02,-0.02,0.03
2.363,0.04,0.05,-0.02,0.07
2.373,0.07,0.04,-0.02,0.09
2.383,0.08,0.02,-0.03,0.09
2.393,0.08,-0.00,-0.03,0.09
2.403,0.07,-0.02,-0.04,0.08
2.413,0.04,-0.04,-0.03,0.07
2.423,0.02,-0.03,-0.01,0.04
2.434,0.01,-0.00,-0.01,0.01
2.444,-0.02,0.03,-0.02,0.04
2.454,-0.05,0.04,-0.03,0.08
2.464,-0.06,0.03,-0.01,0.07
2.474,-0.01,-0.00,-0.00,0.02
2.484,0.01,-0.03,0.00,0.03
2.494,0.04,-0.02,-0.02,0.05
2.504,0.03,-0.01,-0.02,0.03
2.514,0.00,-0.01,-0.02,0.02
2.524,-0.02,0.00,-0.03,0.04
2.534,-0.01,-0.01,0.00,0.01
2.544,0.01,-0.00,0.01,0.01
2.554,0.05,0.01,0.03,0.06
2.564,0.10,0.01,0.03,0.10
2.574,0.13,0.00,0.00,0.13
2.584,0.12,0.00,-0.01,0.12
2.595,0.09,-0.00,0.02,0.09
2.605,0.07,-0.03,0.04,0.08
2.615,0.06,-0.07,0.06,0.12
2.625,0.07,-0.06,0.06,0.11
2.635,0.05,-0.04,0.03,0.07
2.645,0.01,-0.02,0.02,0.03
2.655,0.01,-0.00,-0.01,0.02
2.665,0.02,-0.00,-0.01,0.02
2.675,0.02,-0.00,0.01,0.02
2.685,0.03,-0.01,0.01,0.03
2.695,0.03,0.00,0.00,0.03
2.705,0.01,0.02,-0.02,0.03
2.715,-0.01,0.02,-0.04,0.04
2.725,-0.04,0.01,-0.05,0.06
2.735,-0.03,0.03,-0.06,0.07
2.745,0.02,0.02,-0.04,0.05
2.755,0.06,0.01,-0.01,0.06
2.765,0.08,0.01,-0.02,0.08
2.775,0.07,-0.01,0.01,0.07
2.785,0.08,-0.02,0.03,0.09
2.795,0.08,-0.02,0.03,0.09
2.806,0.08,-0.02,0.02,0.08
2.816,0.05,-0.03,0.03,0.07
2.826,0.04,-0.04,0.03,0.06
2.836,0.03,-0.03,0.04,0.06
2.846,0.01,-0.03,0.04,0.05
2.856,0.03,-0.02,0.05,0.06
2.866,0.03,-0.01,0.03,0.04
2.876,0.03,0.01,0.02,0.04
2.886,0.04,-0.00,-0.01,0.04
2.896,0.03,-0.01,-0.01,0.04
2.906,0.02,-0.02,-0.02,0.03
2.916,0.04,-0.02,-0.02,0.04
2.926,0.04,-0.02,0.01,0.04
2.936,0.06,-0.01,0.02,0.06
2.946,0.07,-0.00,0.03,0.07
2.957,0.06,-0.01,0.02,0.06
2.966,0.07,-0.00,0.04,0.08
2.977,0.06,0.01,0.03,0.07
2.987,0.03,0.00,0.02,0.03
2.997,0.01,0.00,0.01,0.01
3.007,0.00,-0.01,-0.01,0.01
3.017,-0.01,-0.01,-0.02,0.02
3.027,0.01,-0.01,0.01,0.02
3.037,0.00,0.00,-0.01,0.01
3.047,-0.02,0.02,0.00,0.02
3.057,-0.03,0.01,-0.00,0.03
3.067,-0.03,0.00,-0.01,0.03
3.077,-0.03,0.00,-0.01,0.03
3.087,-0.03,0.02,0.01,0.03
3.097,-0.01,0.03,0.01,0.03
3.107,0.02,0.04,-0.00,0.05
3.117,-0.00,0.05,-0.04,0.06
3.127,-0.01,0.05,-0.04,0.06
3.138,0.02,0.03,-0.03,0.04
3.148,0.06,-0.02,0.01,0.06
3.158,0.11,-0.06,0.02,0.12
3.168,0.16,-0.07,0.03,0.17
3.178,0.20,-0.06,0.05,0.22
3.188,0.18,-0.04,0.07,0.20
3.198,0.16,-0.04,0.07,0.18
3.208,0.09,-0.04,0.09,0.13
3.218,0.07,-0.03,0.10,0.13
3.228,0.04,-0.04,0.08,0.10
3.238,0.01,-0.02,0.07,0.07
3.248,-0.02,-0.00,0.06,0.07
3.258,-0.03,-0.01,0.08,0.09
3.268,-0.05,-0.03,0.12,0.14
3.278,-0.02,-0.03,0.14,0.14
3.288,0.02,-0.04,0.10,0.11
3.298,0.04,-0.03,0.03,0.06
3.308,0.03,-0.03,-0.03,0.05
3.319,0.00,-0.04,-0.04,0.05
3.329,0.00,0.00,-0.03,0.03
3.339,0.01,0.02,-0.01,0.03
3.349,0.00,0.05,0.02,0.05
3.359,-0.01,0.04,0.01,0.04
3.369,-0.01,-0.00,-0.00,0.01
3.379,-0.00,-0.03,-0.03,0.04
3.389,0.01,-0.04,-0.07,0.08
3.399,0.02,-0.04,-0.05,0.07
3.409,0.06,-0.02,-0.04,0.08
3.419,0.08,0.02,-0.06,0.10
3.429,0.07,0.04,-0.07,0.10
3.439,0.04,0.04,-0.06,0.08
3.449,0.01,0.05,-0.08,0.09
3.459,-0.02,0.03,-0.06,0.07
3.469,-0.01,0.00,-0.05,0.05
3.479,0.01,-0.01,-0.03,0.03
3.489,0.03,-0.02,-0.02,0.04
3.499,0.04,-0.00,-0.03,0.05
3.509,0.02,-0.02,-0.01,0.03
3.520,-0.01,-0.02,0.04,0.05
3.530,-0.01,-0.02,0.04,0.05
3.540,-0.02,-0.01,0.02,0.03
3.550,-0.02,-0.00,0.01,0.03
3.560,-0.00,0.01,-0.02,0.02
3.570,-0.01,0.02,-0.02,0.03
3.580,0.02,-0.00,-0.05,0.05
3.590,0.03,0.00,-0.03,0.04
3.600,0.05,-0.00,-0.02,0.05
3.610,0.06,-0.01,-0.02,0.06
3.620,0.04,-0.01,-0.01,0.04
3.630,0.04,-0.01,-0.02,0.05
3.640,0.04,-0.02,-0.02,0.05
3.650,0.05,0.01,0.02,0.05
3.660,0.05,0.03,0.03,0.06
3.670,0.04,0.04,0.04,0.07
3.680,0.03,0.06,0.03,0.07
3.690,-0.00,0.05,0.00,0.05
3.701,-0.01,0.01,0.01,0.02
3.711,0.01,-0.05,0.04,0.07
3.721,0.04,-0.09,0.07,0.12
3.731,0.08,-0.13,0.09,0.17
3.741,0.11,-0.12,0.09,0.19
3.751,0.14,-0.08,0.09,0.18
3.761,0.14,-0.02,0.07,0.16
3.771,0.10,0.01,0.06,0.12
3.781,0.05,0.01,0.05,0.08
3.791,0.02,0.01,0.03,0.04
3.801,-0.03,0.00,0.02,0.03
3.811,-0.03,0.01,0.03,0.04
3.821,-0.04,0.01,0.03,0.05
3.831,-0.02,-0.01,0.03,0.03
3.841,-0.00,-0.03,0.02,0.03
3.851,0.03,-0.04,0.03,0.06
3.862,0.07,-0.03,0.06,0.09
3.872,0.09,-0.04,0.05,0.11
3.882,0.09,-0.03,0.03,0.10
3.892,0.05,0.01,0.02,0.06
3.902,0.03,-0.00,-0.01,0.03
3.912,0.02,0.00,-0.01,0.02
3.922,0.02,-0.01,0.04,0.04
3.932,0.04,-0.03,0.06,0.08
3.942,0.03,-0.02,0.04,0.06
3.952,0.02,-0.01,0.01,0.03
3.962,-0.00,0.00,-0.01,0.01
3.972,-0.02,-0.00,-0.03,0.04
3.982,-0.04,-0.00,-0.02,0.05
3.992,-0.02,0.02,-0.03,0.04
4.002,0.01,0.03,-0.03,0.05
4.012,0.02,0.04,-0.02,0.05
4.022,0.03,0.04,-0.03,0.06
4.032,0.02,0.02,-0.05,0.05
4.042,0.01,0.02,-0.05,0.06
4.053,-0.01,-0.01,-0.04,0.04
4.063,-0.01,-0.03,0.01,0.04
4.073,0.02,-0.04,0.06,0.08
4.083,0.07,-0.03,0.09,0.12
4.093,0.09,-0.02,0.07,0.11
4.103,0.09,-0.02,0.04,0.10
4.113,0.05,-0.02,0.01,0.06
4.123,0.04,-0.02,-0.00,0.04
4.133,0.03,-0.02,-0.00,0.04
4.143,0.02,-0.02,0.01,0.03
4.153,0.02,-0.01,0.00,0.02
4.163,0.01,0.02,-0.01,0.02
4.173,-0.02,-0.02,0.01,0.03
4.183,-0.02,-0.03,0.00,0.04
4.193,-0.00,-0.02,-0.01,0.03
4.203,0.01,-0.00,0.01,0.02
4.213,0.02,0.02,-0.02,0.03
4.224,-0.01,0.00,-0.03,0.03
4.233,0.00,-0.02,0.01,0.02
4.244,0.04,-0.00,0.01,0.04
4.254,0.07,0.02,-0.00,0.08
4.264,0.10,0.05,-0.04,0.12
4.274,0.09,0.05,-0.04,0.11
4.284,0.08,0.04,-0.04,0.10
4.294,0.05,-0.03,-0.02,0.06
4.304,0.01,-0.07,-0.01,0.07
4.314,0.01,-0.08,0.02,0.08
4.324,0.02,-0.07,0.08,0.11
4.334,0.04,-0.04,0.13,0.15
4.344,0.06,-0.02,0.14,0.16
4.354,0.05,-0.03,0.13,0.14
4.364,0.03,-0.01,0.11,0.12
4.374,0.02,-0.01,0.06,0.07
4.384,0.01,-0.03,0.04,0.05
4.394,0.01,-0.03,0.04,0.05
4.405,0.01,-0.04,0.06,0.07
4.415,0.02,-0.05,0.07,0.08
4.425,0.02,-0.03,0.05,0.06
4.435,0.02,-0.01,0.00,0.02
4.445,0.01,0.01,-0.05,0.05
4.455,0.02,0.03,-0.08,0.09
4.465,-0.01,0.05,-0.09,0.10
4.475,-0.02,0.04,-0.08,0.10
4.485,-0.00,0.03,-0.07,0.07
4.495,0.04,0.00,-0.04,0.05
4.505,0.06,0.00,-0.02,0.06
4.515,0.05,-0.03,-0.01,0.06
4.525,0.03,-0.03,-0.01,0.04
4.535,0.05,-0.03,-0.00,0.06
4.545,0.05,-0.03,-0.01,0.06
4.555,0.03,0.00,-0.01,0.03
4.565,0.03,0.01,-0.01,0.03
4.575,0.03,0.03,-0.00,0.04
4.585,0.04,0.05,-0.04,0.07
4.596,0.02,0.04,-0.05,0.07
4.606,-0.01,0.03,-0.06,0.06
4.616,-0.02,-0.00,-0.05,0.06
4.626,-0.01,-0.01,-0.01,0.02
4.636,0.02,-0.02,-0.01,0.03
4.646,0.03,-0.02,-0.02,0.05
4.656,0.03,-0.01,-0.01,0.04
4.666,0.05,-0.02,0.01,0.06
4.676,0.04,-0.03,0.03,0.06
4.686,0.02,-0.02,0.07,0.07
4.696,0.01,-0.01,0.09,0.09
4.706,-0.01,0.02,0.08,0.08
4.716,-0.02,0.02,0.04,0.05
4.726,-0.05,0.01,0.02,0.05
4.736,-0.06,-0.02,0.02,0.07
4.746,-0.02,-0.03,0.00,0.04
4.756,0.03,-0.02,-0.02,0.04
4.767,0.05,-0.01,-0.03,0.06
4.776,0.07,0.00,-0.03,0.08
4.787,0.06,0.01,-0.03,0.07
4.797,0.00,0.01,-0.04,0.05
4.807,-0.02,0.02,-0.04,0.05
4.817,-0.04,0.01,-0.03,0.05
4.827,-0.05,-0.01,0.01,0.06
4.837,-0.03,-0.02,0.04,0.05
4.847,0.03,0.00,0.07,0.07
4.857,0.11,0.02,0.08,0.13
4.867,0.12,0.02,0.06,0.13
4.877,0.12,-0.00,0.06,0.14
4.887,0.11,-0.03,0.07,0.13
4.897,0.11,-0.08,0.07,0.15
4.907,0.09,-0.13,0.06,0.16
4.917,0.10,-0.09,0.06,0.15
4.927,0.09,-0.05,0.07,0.12
4.937,0.09,-0.00,0.06,0.10
4.948,0.06,0.01,0.05,0.08
4.958,0.03,0.00,0.04,0.05
4.968,0.00,-0.01,0.02,0.02
4.978,0.01,-0.01,-0.01,0.02
4.988,-0.01,-0.01,-0.04,0.04
4.998,-0.03,0.00,-0.05,0.06
5.008,-0.05,0.01,-0.04,0.07
5.018,-0.06,0.03,-0.03,0.07
5.028,-0.05,0.05,-0.01,0.08
5.038,-0.03,0.06,0.01,0.06
5.048,-0.02,0.03,0.02,0.04
5.058,-0.01,0.02,-0.01,0.02
5.068,-0.02,-0.01,-0.02,0.03
5.078,-0.00,-0.03,-0.03,0.04
5.088,0.05,-0.03,-0.03,0.06
5.098,0.07,-0.01,-0.01,0.08
5.108,0.07,0.01,-0.01,0.07
5.118,0.06,0.02,-0.01,0.07
5.129,0.02,0.00,0.02,0.03
5.139,0.01,-0.03,0.05,0.06
5.149,0.03,-0.02,0.03,0.05
5.159,0.03,0.00,0.00,0.03
5.169,0.03,-0.00,0.00,0.03
5.179,0.03,0.01,0.02,0.04
5.189,0.03,-0.00,0.01,0.04
5.199,0.03,-0.01,0.00,0.03
5.209,0.02,-0.03,0.01,0.04
5.219,0.03,-0.03,-0.00,0.05
5.229,0.03,-0.02,-0.00,0.03
5.239,0.05,-0.00,-0.01,0.05
5.249,0.04,0.01,-0.04,0.06
5.259,0.06,0.03,-0.03,0.07
5.269,0.05,0.04,-0.05,0.08
5.279,0.03,0.03,-0.01,0.05
5.290,0.02,-0.00,0.06,0.07
5.299,0.01,-0.04,0.10,0.10
5.309,0.00,-0.05,0.09,0.10
5.320,-0.02,-0.03,0.07,0.08
5.330,-0.02,-0.03,0.05,0.06
5.340,-0.02,-0.02,0.02,0.04
5.350,-0.03,0.00,0.01,0.03
5.360,-0.01,-0.01,0.01,0.02
5.370,0.03,-0.01,0.07,0.07
5.380,0.04,-0.02,0.08,0.09
5.390,0.03,-0.02,0.06,0.07
5.400,0.03,-0.02,0.06,0.07
5.410,0.00,-0.04,0.02,0.04
5.420,-0.01,-0.04,0.03,0.05
5.430,0.01,-0.02,0.05,0.05
5.440,0.05,-0.01,0.05,0.06
5.450,0.09,0.00,0.03,0.09
5.460,0.08,0.01,0.01,0.09
5.470,0.06,0.05,-0.01,0.08
5.480,0.04,0.05,-0.02,0.07
5.491,0.02,0.01,0.00,0.02
5.501,0.03,-0.06,0.02,0.07
5.511,0.06,-0.09,0.03,0.11
5.521,0.07,-0.09,0.08,0.14
5.531,0.10,-0.06,0.05,0.13
5.541,0.09,-0.01,0.01,0.09
5.551,0.04,0.02,-0.03,0.06
5.561,0.01,0.03,-0.06,0.06
5.571,-0.03,0.03,-0.01,0.04
5.581,-0.03,0.02,0.01,0.04
5.591,-0.05,0.01,0.02,0.05
5.601,-0.03,0.01,0.03,0.04
5.611,-0.01,0.01,0.00,0.02
5.621,-0.01,0.02,-0.04,0.05
5.631,-0.00,0.02,-0.08,0.08
5.641,0.01,0.01,-0.11,0.11
5.651,0.00,0.01,-0.12,0.12
5.662,0.02,0.02,-0.07,0.07
5.672,0.01,0.03,-0.03,0.05
5.682,0.02,0.01,0.01,0.03
5.692,0.03,0.00,-0.00,0.03
5.702,0.01,-0.02,0.00,0.02
5.712,0.01,-0.02,0.01,0.02
5.722,0.02,-0.01,-0.00,0.02
5.732,0.02,-0.02,-0.01,0.03
5.742,0.04,-0.01,-0.01,0.04
5.752,0.03,-0.00,0.02,0.03
5.762,0.03,-0.00,0.01,0.03
5.772,0.02,0.01,0.00,0.02
5.782,-0.01,0.02,-0.02,0.03
5.792,0.00,0.03,-0.02,0.04
5.802,-0.00,0.03,-0.05,0.06
5.812,-0.00,0.01,-0.05,0.05
5.822,-0.00,0.00,-0.04,0.04
5.832,-0.00,-0.03,-0.01,0.03
5.842,0.01,-0.03,-0.01,0.03
5.853,0.01,-0.02,0.00,0.02
5.863,0.02,-0.03,0.02,0.04
5.873,0.04,-0.02,0.04,0.06
5.883,0.05,0.01,0.05,0.07
5.893,0.06,0.02,0.08,0.10
5.903,0.06,-0.01,0.08,0.10
5.913,0.06,-0.03,0.09,0.11
5.923,0.06,-0.04,0.11,0.13
5.933,0.05,-0.04,0.12,0.14
5.943,0.06,-0.06,0.13,0.15
5.953,0.06,-0.05,0.11,0.14
5.963,0.08,-0.06,0.08,0.12
5.973,0.09,-0.04,0.04,0.10
5.983,0.08,-0.01,0.02,0.08
5.993,0.06,0.01,-0.01,0.06
6.003,0.03,0.01,-0.00,0.03
6.014,-0.03,-0.01,-0.01,0.03
6.024,-0.06,-0.01,0.02,0.06
6.034,-0.06,-0.00,0.04,0.08
6.044,-0.04,0.02,0.05,0.07
6.054,0.02,0.02,0.03,0.04
6.064,0.05,0.02,0.00,0.05
6.074,0.03,0.01,-0.01,0.03
6.084,0.02,-0.02,-0.00,0.03
6.094,0.04,-0.05,0.03,0.08
6.104,0.05,-0.08,0.04,0.11
6.114,0.04,-0.06,0.04,0.08
6.124,0.04,-0.03,0.03,0.06
6.134,0.02,0.00,-0.00,0.02
6.144,-0.00,0.01,-0.01,0.01
6.154,-0.02,0.01,-0.00,0.02
6.164,-0.04,-0.00,0.03,0.05
6.174,-0.01,-0.02,0.06,0.06
6.184,-0.00,-0.04,0.04,0.06
6.194,-0.02,-0.02,0.01,0.03
6.205,-0.00,0.01,-0.01,0.02
6.215,-0.04,0.02,-0.04,0.06
6.225,-0.03,0.03,-0.05,0.07
6.235,-0.00,0.01,0.00,0.01
6.245,0.03,-0.00,0.04,0.05
6.255,0.04,-0.03,0.02,0.05
6.265,0.04,-0.01,0.02,0.05
6.275,0.05,0.01,-0.03,0.06
6.285,0.01,0.01,-0.04,0.04
6.295,0.01,-0.01,-0.03,0.04
6.305,0.02,-0.02,-0.00,0.03
6.315,0.01,-0.02,0.00,0.02
6.325,0.01,-0.02,0.02,0.03
6.335,0.02,-0.04,-0.02,0.04
6.345,0.02,-0.00,-0.05,0.05
6.355,0.01,0.02,-0.08,0.09
6.365,0.01,0.02,-0.09,0.09
6.375,-0.03,0.01,-0.05,0.06
6.385,-0.03,0.02,-0.04,0.06
6.396,-0.04,0.00,-0.05,0.06
6.406,-0.02,0.00,-0.04,0.04
6.416,0.01,0.03,-0.03,0.04
6.426,0.01,0.02,-0.05,0.05
6.436,0.02,0.00,-0.03,0.03
6.446,0.01,-0.01,-0.02,0.03
6.456,0.01,-0.02,0.00,0.02
6.466,0.01,-0.01,0.02,0.03
6.476,-0.00,-0.01,0.03,0.03
6.486,-0.01,-0.01,0.06,0.06
6.496,-0.00,-0.01,0.06,0.06
6.506,0.02,-0.03,0.07,0.08
6.516,0.02,-0.02,0.07,0.08
6.526,0.04,-0.02,0.04,0.06
6.536,0.05,-0.01,0.02,0.05
6.546,0.07,-0.01,0.00,0.07
6.556,0.06,-0.01,0.01,0.06
6.567,0.04,-0.01,0.01,0.04
6.577,0.02,0.00,0.03,0.04
6.587,0.03,-0.01,0.04,0.05
6.597,0.01,-0.00,0.03,0.03
6.607,0.02,0.01,0.03,0.04
6.617,0.03,0.01,0.01,0.03
6.627,0.03,0.01,-0.01,0.04
6.637,0.04,0.02,-0.03,0.05
6.647,0.05,0.01,-0.01,0.06
6.657,0.06,0.01,-0.01,0.06
6.667,0.04,-0.00,0.02,0.05
6.677,0.04,-0.03,0.04,0.06
6.687,0.01,-0.05,0.04,0.07
6.697,0.00,-0.05,0.02,0.06
6.707,0.02,-0.02,0.02,0.03
6.717,0.04,-0.01,0.01,0.04
6.727,0.03,-0.01,-0.02,0.04
6.738,0.01,-0.01,-0.00,0.02
6.748,-0.02,-0.02,0.03,0.04
6.758,-0.02,-0.01,0.03,0.04
6.768,-0.03,-0.01,0.04,0.05
6.778,-0.04,-0.01,0.03,0.05
6.788,-0.02,0.02,0.01,0.03
6.798,0.00,0.04,-0.01,0.04
6.808,0.01,0.02,-0.03,0.04
6.818,0.05,0.01,-0.01,0.05
6.828,0.04,-0.02,0.01,0.05
6.838,0.03,-0.03,0.06,0.07
6.848,-0.00,-0.06,0.10,0.12
6.858,-0.00,-0.06,0.13,0.14
6.868,0.03,-0.05,0.15,0.16
6.878,0.06,-0.04,0.15,0.16
6.888,0.08,-0.01,0.06,0.10
6.898,0.09,-0.01,-0.04,0.10
6.908,0.07,0.02,-0.09,0.12
6.918,0.04,0.01,-0.08,0.09
6.929,0.01,-0.01,-0.06,0.06
6.939,-0.00,-0.02,-0.01,0.02
6.949,-0.01,-0.01,0.02,0.02
6.959,-0.03,-0.01,-0.01,0.04
6.969,-0.02,0.00,-0.04,0.05
6.979,-0.01,0.03,-0.08,0.09
6.989,-0.02,0.05,-0.11,0.12
6.999,-0.04,0.05,-0.11,0.12
7.009,-0.04,0.04,-0.10,0.12
7.019,-0.04,0.04,-0.07,0.09
7.029,-0.03,0.05,-0.03,0.07
7.039,-0.02,0.02,0.01,0.03
7.049,-0.01,-0.02,0.07,0.07
7.059,0.01,-0.02,0.08,0.08
7.069,0.03,-0.05,0.06,0.09
7.079,0.06,-0.05,0.08,0.11
7.090,0.07,-0.05,0.07,0.11
7.100,0.06,-0.03,0.04,0.08
7.109,0.03,-0.03,0.04,0.05
7.120,0.04,-0.02,-0.00,0.05
7.130,0.04,0.01,0.00,0.04
7.140,0.04,0.00,0.02,0.04
7.150,0.03,0.02,0.00,0.04
7.160,-0.01,0.01,0.02,0.02
7.170,-0.04,-0.02,0.02,0.05
7.180,-0.06,-0.04,0.02,0.07
7.190,-0.05,-0.04,0.05,0.08
7.200,0.00,-0.02,0.04,0.05
7.210,0.06,0.04,0.01,0.07
7.220,0.07,0.07,-0.03,0.10
7.230,0.04,0.07,-0.04,0.09
7.240,0.00,0.04,-0.02,0.04
7.250,0.01,-0.02,0.01,0.02
7.260,-0.02,-0.07,0.02,0.07
7.270,-0.00,-0.09,0.05,0.11
7.281,0.01,-0.08,0.04,0.09
7.291,0.04,-0.03,0.05,0.07
7.301,0.03,0.01,0.03,0.04
7.311,0.02,0.03,0.02,0.04
7.321,0.00,0.04,0.02,0.04
7.331,-0.03,0.02,0.01,0.04
7.341,-0.03,-0.00,0.03,0.05
7.351,-0.04,0.00,0.01,0.04
7.361,-0.05,-0.00,-0.01,0.05
7.371,-0.05,0.00,-0.01,0.05
7.381,-0.03,0.00,-0.04,0.05
7.391,-0.02,-0.01,-0.04,0.04
7.401,0.01,-0.02,-0.03,0.04
7.411,0.07,-0.02,-0.01,0.08
7.421,0.09,0.02,-0.01,0.10
7.431,0.06,0.02,-0.03,0.07
7.441,0.03,-0.00,0.01,0.04
7.451,0.01,-0.03,0.05,0.06
7.462,0.00,-0.04,0.05,0.06
7.472,0.01,-0.04,0.04,0.06
7.482,-0.00,-0.03,0.05,0.06
7.492,0.03,-0.01,0.05,0.06
7.502,0.05,-0.01,0.07,0.09
7.512,0.04,-0.02,0.09,0.10
7.522,0.03,-0.02,0.10,0.11
7.532,0.03,-0.02,0.07,0.08
7.542,0.06,-0.03,0.04,0.08
7.552,0.07,-0.01,0.00,0.07
7.562,0.06,-0.01,-0.02,0.06
7.572,0.05,0.01,-0.04,0.07
7.582,0.02,0.00,-0.03,0.04
7.592,0.02,-0.01,-0.03,0.03
7.602,-0.01,0.01,-0.03,0.03
7.612,-0.05,0.01,-0.01,0.05
7.622,-0.03,0.00,-0.00,0.03
7.632,-0.00,-0.00,0.03,0.03
7.642,-0.00,0.01,0.03,0.04
7.652,0.00,0.01,0.01,0.02
7.663,0.01,0.04,0.03,0.05
7.673,0.03,0.04,0.05,0.07
7.683,0.03,0.02,0.06,0.07
7.693,0.02,-0.00,0.02,0.03
7.703,0.01,-0.03,0.01,0.03
7.713,0.02,-0.04,-0.01,0.05
7.723,0.02,-0.05,-0.03,0.06
7.733,0.04,-0.03,-0.01,0.05
7.743,0.05,-0.03,0.01,0.06
7.753,0.04,-0.02,0.00,0.04
7.763,0.02,-0.03,0.03,0.05
7.773,0.02,-0.05,0.09,0.11
7.783,0.08,-0.03,0.10,0.13
7.793,0.15,0.02,0.08,0.17
7.803,0.21,0.03,0.08,0.22
7.813,0.19,0.03,0.04,0.20
7.824,0.16,0.02,0.05,0.17
7.834,0.13,-0.05,0.09,0.17
7.844,0.10,-0.09,0.12,0.18
7.854,0.11,-0.12,0.14,0.22
7.864,0.14,-0.11,0.11,0.21
7.874,0.16,-0.11,0.10,0.21
7.884,0.15,-0.12,0.11,0.22
7.894,0.20,-0.11,0.18,0.29
7.904,0.23,-0.09,0.24,0.34
7.914,0.25,-0.09,0.29,0.39
7.924,0.25,-0.10,0.31,0.41
7.934,0.24,-0.09,0.28,0.38
7.944,0.21,-0.08,0.24,0.33
7.954,0.17,-0.10,0.20,0.28
7.964,0.14,-0.11,0.17,0.25
7.975,0.14,-0.14,0.14,0.24
7.984,0.13,-0.12,0.13,0.22
7.994,0.14,-0.10,0.11,0.20
8.005,0.13,-0.11,0.11,0.20
8.015,0.15,-0.11,0.15,0.24
8.025,0.16,-0.15,0.21,0.30
8.035,0.17,-0.18,0.28,0.37
8.045,0.20,-0.17,0.26,0.37
8.055,0.23,-0.14,0.21,0.34
8.065,0.24,-0.09,0.12,0.29
8.075,0.24,-0.06,0.06,0.25
8.085,0.21,-0.06,0.03,0.22
8.095,0.16,-0.09,0.04,0.19
8.105,0.13,-0.09,0.07,0.17
8.115,0.14,-0.10,0.12,0.21
8.125,0.12,-0.14,0.17,0.25
8.135,0.11,-0.16,0.24,0.31
8.145,0.14,-0.16,0.23,0.31
8.155,0.19,-0.12,0.19,0.30
8.165,0.24,-0.09,0.16,0.30
8.175,0.26,-0.09,0.12,0.30
8.185,0.22,-0.06,0.08,0.24
8.196,0.15,-0.06,0.05,0.17
8.206,0.07,-0.09,0.06,0.13
8.216,-0.00,-0.13,0.17,0.22
8.226,0.06,-0.21,0.33,0.40
8.236,0.23,-0.21,0.37,0.49
8.246,0.29,-0.19,0.35,0.50
8.256,0.32,-0.15,0.29,0.46
8.266,0.27,-0.13,0.24,0.39
8.276,0.21,-0.12,0.24,0.34
8.286,0.19,-0.14,0.24,0.34
8.296,0.18,-0.19,0.30,0.40
8.306,0.20,-0.22,0.36,0.46
8.316,0.24,-0.24,0.43,0.55
8.326,0.30,-0.27,0.43,0.59
8.336,0.36,-0.24,0.39,0.58
8.347,0.41,-0.21,0.42,0.63
8.356,0.50,-0.19,0.40,0.67
8.367,0.62,-0.15,0.35,0.73
8.377,0.69,-0.07,0.25,0.73
8.387,0.66,-0.02,0.16,0.68
8.397,0.58,-0.03,0.14,0.59
8.407,0.47,-0.05,0.20,0.52
8.417,0.40,-0.13,0.32,0.53
8.427,0.41,-0.22,0.48,0.67
8.437,0.42,-0.20,0.49,0.67
8.447,0.43,-0.17,0.42,0.62
8.457,0.43,-0.15,0.54,0.71
8.467,0.51,-0.15,0.61,0.81
8.477,0.69,-0.08,0.61,0.92
8.487,0.85,0.03,0.62,1.05
8.497,0.91,0.15,0.57,1.09
8.507,1.02,0.31,0.45,1.15
8.517,0.98,0.43,0.39,1.14
8.528,0.78,0.50,0.33,0.98
8.538,0.41,0.60,0.26,0.77
8.548,0.08,0.75,0.29,0.81
8.558,-0.11,0.95,0.36,1.02
8.568,-0.18,1.06,0.38,1.14
8.578,-0.14,1.13,0.31,1.18
8.588,0.02,1.23,0.25,1.26
8.598,0.19,1.33,0.26,1.36
8.608,0.34,1.28,0.35,1.37
8.618,0.52,1.23,0.37,1.39
8.628,0.60,1.33,0.37,1.50
8.638,0.52,1.47,0.36,1.60
8.648,0.33,1.41,0.30,1.48
8.658,0.12,1.15,0.16,1.17
8.668,-0.05,0.82,0.08,0.82
8.678,-0.22,0.47,0.12,0.54
8.688,-0.39,0.17,0.09,0.44
8.698,-0.53,0.01,-0.00,0.53
8.709,-0.55,-0.06,-0.01,0.56
8.719,-0.53,-0.05,-0.05,0.53
8.729,-0.50,0.03,-0.20,0.54
8.739,-0.52,0.14,-0.28,0.61
8.749,-0.45,0.43,-0.15,0.64
8.759,-0.34,0.74,0.02,0.82
8.769,-0.32,0.97,0.02,1.02
8.779,-0.34,1.09,-0.02,1.14
8.789,-0.30,1.12,0.01,1.16
8.799,-0.28,1.05,0.01,1.09
8.809,-0.30,0.96,0.10,1.01
8.819,-0.33,0.87,0.18,0.95
8.829,-0.30,0.83,0.21,0.91
8.839,-0.25,0.82,0.16,0.87
8.849,-0.22,0.81,0.10,0.85
8.859,-0.19,0.84,-0.01,0.86
8.869,-0.19,0.90,-0.10,0.93
8.879,-0.21,0.95,-0.16,0.99
8.890,-0.26,0.98,-0.24,1.04
8.900,-0.28,1.01,-0.24,1.07
8.910,-0.34,1.04,-0.21,1.12
8.920,-0.42,1.05,-0.21,1.15
8.930,-0.51,1.04,-0.27,1.19
8.940,-0.64,1.03,-0.30,1.25
8.950,-0.79,1.02,-0.29,1.32
8.960,-0.89,1.01,-0.28,1.38
8.970,-0.96,0.98,-0.21,1.39
8.980,-0.95,0.90,-0.10,1.31
8.990,-0.86,0.71,-0.11,1.12
9.000,-0.66,0.51,-0.10,0.84
9.010,-0.49,0.36,-0.18,0.64
9.020,-0.38,0.27,-0.31,0.56
9.030,-0.35,0.22,-0.36,0.54
9.040,-0.43,0.21,-0.39,0.62
9.050,-0.54,0.21,-0.38,0.69
9.060,-0.63,0.30,-0.35,0.78
9.070,-0.69,0.42,-0.29,0.86
9.081,-0.66,0.46,-0.16,0.82
9.091,-0.53,0.48,-0.01,0.72
9.101,-0.39,0.53,-0.00,0.65
9.111,-0.26,0.59,-0.05,0.64
9.121,-0.18,0.65,-0.18,0.70
9.131,-0.13,0.64,-0.27,0.71
9.141,-0.12,0.61,-0.28,0.68
9.151,-0.16,0.59,-0.33,0.70
9.161,-0.19,0.56,-0.26,0.65
9.171,-0.22,0.55,-0.20,0.62
9.181,-0.25,0.50,-0.13,0.57
9.191,-0.27,0.43,0.02,0.51
9.201,-0.26,0.41,0.07,0.49
9.211,-0.18,0.35,0.12,0.41
9.221,-0.09,0.29,0.12,0.32
9.231,-0.02,0.24,0.10,0.26
9.241,0.02,0.19,0.10,0.22
9.251,0.14,0.06,0.18,0.24
9.262,0.28,-0.12,0.20,0.37
9.272,0.37,-0.27,0.20,0.49
9.282,0.40,-0.37,0.21,0.59
9.292,0.40,-0.39,0.21,0.60
9.302,0.48,-0.37,0.29,0.67
9.312,0.48,-0.37,0.36,0.70
9.322,0.41,-0.46,0.37,0.72
9.332,0.35,-0.64,0.36,0.81
9.342,0.27,-0.77,0.33,0.88
9.352,0.22,-0.85,0.32,0.93
9.362,0.22,-0.96,0.29,1.02
9.372,0.25,-1.09,0.29,1.15
9.382,0.32,-1.23,0.22,1.29
9.392,0.39,-1.37,0.15,1.43
9.402,0.52,-1.52,0.09,1.61
9.412,0.55,-1.63,0.11,1.72
9.422,0.56,-1.70,0.06,1.79
9.432,0.63,-1.76,0.03,1.87
9.442,0.66,-1.74,0.01,1.86
9.452,0.57,-1.63,-0.00,1.73
9.463,0.51,-1.67,-0.05,1.75
9.473,0.42,-1.76,-0.14,1.82
9.483,0.33,-1.82,-0.26,1.87
9.493,0.34,-1.90,-0.43,1.98
9.503,0.18,-1.91,-0.47,1.98
9.513,0.14,-1.89,-0.49,1.96
9.523,0.10,-1.83,-0.41,1.88
9.533,0.16,-1.89,-0.43,1.95
9.543,0.09,-1.90,-0.48,1.96
9.553,0.04,-1.83,-0.41,1.87
9.563,0.02,-1.71,-0.37,1.75
9.573,0.08,-1.50,-0.41,1.56
9.583,0.09,-1.28,-0.38,1.33
9.593,0.04,-1.07,-0.27,1.10
9.603,0.01,-0.85,-0.21,0.87
9.614,-0.02,-0.66,-0.28,0.72
9.623,0.00,-0.48,-0.31,0.57
9.634,0.01,-0.35,-0.36,0.50
9.644,-0.04,-0.33,-0.37,0.50
9.654,0.04,-0.29,-0.33,0.44
9.664,0.06,-0.30,-0.28,0.42
9.674,0.08,-0.29,-0.30,0.43
9.684,0.03,-0.29,-0.33,0.44
9.694,0.03,-0.27,-0.34,0.44
9.704,-0.01,-0.24,-0.33,0.41
9.714,-0.04,-0.21,-0.25,0.33
9.725,-0.00,-0.17,-0.17,0.24
9.734,0.07,-0.19,-0.11,0.23
9.744,0.17,-0.22,-0.07,0.29
9.754,0.24,-0.21,-0.04,0.32
9.764,0.22,-0.19,-0.10,0.31
9.774,0.13,-0.16,-0.18,0.28
9.784,0.02,-0.15,-0.28,0.32
9.795,-0.12,-0.15,-0.43,0.47
9.804,-0.25,-0.24,-0.52,0.62
9.815,-0.43,-0.34,-0.59,0.80
9.825,-0.58,-0.46,-0.59,0.94
9.835,-0.60,-0.55,-0.57,0.99
9.845,-0.60,-0.57,-0.55,0.99
9.855,-0.55,-0.54,-0.52,0.92
9.865,-0.51,-0.52,-0.48,0.88
9.875,-0.51,-0.50,-0.49,0.86
9.885,-0.50,-0.45,-0.48,0.83
9.895,-0.48,-0.38,-0.44,0.76
9.905,-0.44,-0.32,-0.40,0.67
9.915,-0.37,-0.25,-0.38,0.59
9.925,-0.27,-0.15,-0.34,0.46
9.935,-0.18,-0.11,-0.23,0.31
9.945,-0.06,-0.12,-0.10,0.17
9.956,0.09,-0.19,0.00,0.21
9.965,0.25,-0.28,0.12,0.39
9.975,0.48,-0.32,0.26,0.63
9.986,0.68,-0.31,0.26,0.79
9.996,0.70,-0.30,0.07,0.76
10.006,0.57,-0.30,-0.14,0.66
10.016,0.42,-0.24,-0.27,0.55
10.026,0.21,-0.16,-0.32,0.41
10.036,0.00,-0.13,-0.28,0.31
10.046,-0.09,-0.17,-0.23,0.30
10.056,-0.26,-0.15,-0.23,0.37
10.066,-0.37,-0.09,-0.28,0.47
10.076,-0.43,-0.07,-0.26,0.51
10.086,-0.45,-0.07,-0.24,0.51
10.096,-0.40,-0.11,-0.21,0.46
10.106,-0.34,-0.16,-0.19,0.43
10.116,-0.29,-0.27,-0.22,0.45
10.126,-0.25,-0.30,-0.24,0.46
10.136,-0.15,-0.21,-0.23,0.35
10.146,0.01,0.04,-0.12,0.12
10.156,0.18,0.25,-0.00,0.31
10.167,0.27,0.35,-0.02,0.44
10.177,0.27,0.36,-0.03,0.45
10.187,0.24,0.23,-0.02,0.33
10.197,0.11,0.06,-0.04,0.13
10.207,-0.02,-0.09,-0.01,0.10
10.217,-0.12,-0.21,0.04,0.25
10.227,-0.15,-0.28,0.11,0.34
10.237,-0.16,-0.22,0.17,0.32
10.247,-0.11,-0.04,0.21,0.24
10.257,-0.01,0.12,0.24,0.27
10.267,-0.02,0.21,0.13,0.25
10.277,-0.02,0.22,0.02,0.23
10.287,0.02,0.18,-0.01,0.18
10.297,0.11,0.07,0.02,0.14
10.307,0.14,-0.05,0.15,0.21
10.317,0.13,-0.18,0.19,0.30
10.327,0.13,-0.22,0.13,0.29
10.337,0.09,-0.23,0.06,0.25
10.348,0.08,-0.20,0.04,0.22
10.358,0.10,-0.15,0.03,0.19
10.368,0.10,-0.10,0.04,0.15
10.378,0.05,-0.01,0.07,0.09
10.388,0.04,0.05,0.04,0.08
10.398,0.01,0.09,-0.03,0.09
10.408,0.00,0.11,-0.10,0.15
10.418,-0.01,0.12,-0.11,0.17
10.428,-0.07,0.09,-0.14,0.18
10.438,-0.13,0.03,-0.14,0.19
10.448,-0.17,0.02,-0.14,0.22
10.458,-0.19,0.01,-0.13,0.23
10.468,-0.18,0.06,-0.13,0.23
10.478,-0.17,0.08,-0.17,0.25
10.488,-0.17,0.04,-0.16,0.23
10.498,-0.14,0.01,-0.14,0.20
10.508,-0.06,0.00,-0.09,0.11
10.518,0.02,-0.02,-0.06,0.07
10.529,0.03,-0.09,-0.07,0.11
10.539,0.04,-0.13,-0.06,0.15
10.549,0.06,-0.11,-0.07,0.15
10.559,0.04,-0.09,-0.11,0.15
10.569,0.01,-0.08,-0.10,0.13
10.579,0.00,-0.08,-0.12,0.14
10.589,-0.01,-0.11,-0.14,0.18
10.599,-0.03,-0.11,-0.11,0.16
10.609,-0.04,-0.09,-0.12,0.16
10.619,-0.05,-0.10,-0.09,0.15
10.629,-0.00,-0.04,-0.07,0.08
10.639,0.03,0.01,-0.05,0.06
10.649,0.02,-0.02,-0.08,0.09
10.659,0.00,-0.04,-0.10,0.10
10.669,-0.02,-0.02,-0.10,0.11
10.680,-0.03,-0.00,-0.11,0.11
10.689,-0.01,0.02,-0.07,0.08
10.700,0.04,0.07,-0.03,0.08
10.709,0.06,0.07,-0.02,0.10
10.720,0.07,0.07,0.00,0.10
10.730,0.05,0.07,-0.00,0.09
10.740,0.03,0.06,0.01,0.07
10.750,0.05,0.03,-0.03,0.06
10.760,0.08,-0.02,-0.02,0.08
10.770,0.14,-0.10,-0.04,0.18
10.780,0.19,-0.16,-0.05,0.25
10.790,0.13,-0.13,0.00,0.19
10.800,0.06,-0.09,0.07,0.12
10.810,0.02,-0.06,0.10,0.12
10.820,0.00,-0.04,0.04,0.05
10.830,0.03,0.01,-0.04,0.05
10.840,0.02,0.08,-0.07,0.11
10.850,0.06,0.10,-0.11,0.16
10.860,0.09,0.05,-0.13,0.16
10.870,0.06,0.00,-0.15,0.16
10.881,0.01,-0.04,-0.11,0.12
10.891,-0.03,-0.02,-0.02,0.05
10.901,-0.03,-0.02,0.05,0.07
10.911,-0.02,-0.03,0.09,0.10
10.921,-0.00,-0.11,0.06,0.12
10.931,0.02,-0.12,0.01,0.12
10.941,0.03,-0.08,-0.01,0.09
10.951,0.06,-0.04,0.00,0.07
10.961,0.07,-0.00,0.01,0.07
10.971,0.06,0.00,0.02,0.06
10.981,0.03,0.00,0.02,0.04
10.991,0.08,-0.05,-0.02,0.10
11.001,0.06,-0.09,-0.02,0.11
11.011,0.02,-0.09,0.01,0.10
11.021,0.00,-0.09,0.07,0.11
11.031,0.05,-0.08,0.07,0.12
11.041,0.06,-0.05,0.06,0.10
11.051,0.07,-0.02,0.09,0.12
11.062,0.10,0.05,0.15,0.19
11.072,0.16,0.07,0.17,0.25
11.082,0.24,0.09,0.17,0.31
11.092,0.26,0.08,0.10,0.29
11.102,0.25,0.04,0.00,0.26
11.112,0.24,-0.02,-0.04,0.24
11.122,0.17,-0.12,0.05,0.21
11.132,0.14,-0.15,0.15,0.25
11.142,0.18,-0.13,0.16,0.28
11.152,0.13,-0.08,0.09,0.18
11.162,0.06,-0.04,-0.00,0.07
11.172,-0.03,-0.02,-0.08,0.09
11.182,-0.07,0.02,-0.09,0.12
11.192,-0.05,-0.00,-0.05,0.07
11.202,-0.09,-0.03,-0.00,0.10
11.212,-0.07,0.00,-0.01,0.08
11.222,-0.02,0.01,-0.04,0.05
11.233,-0.02,0.03,-0.06,0.07
11.243,0.01,0.07,-0.08,0.10
11.253,0.05,0.08,-0.09,0.13
11.263,0.09,0.04,-0.10,0.14
11.273,0.11,-0.01,-0.15,0.18
11.283,0.09,-0.04,-0.19,0.21
11.293,0.05,-0.06,-0.15,0.17
11.303,0.06,-0.10,-0.04,0.13
11.313,0.09,-0.09,0.09,0.15
11.323,0.13,-0.09,0.13,0.21
11.333,0.12,-0.08,0.08,0.17
11.343,0.10,-0.06,0.02,0.12
11.353,0.05,-0.06,-0.01,0.08
11.363,0.02,-0.02,-0.01,0.03
11.373,0.03,-0.01,-0.02,0.04
11.383,0.03,-0.01,-0.05,0.06
11.393,0.03,-0.01,-0.04,0.05
11.403,0.04,-0.01,-0.03,0.05
11.414,0.02,-0.01,-0.01,0.03
11.424,0.04,0.02,0.02,0.05
11.434,0.06,0.02,-0.04,0.08
11.444,0.08,0.01,-0.07,0.11
11.454,0.13,-0.02,-0.02,0.13
11.464,0.16,-0.04,-0.01,0.17
11.474,0.17,-0.05,0.04,0.18
11.484,0.14,-0.06,0.04,0.16
11.494,0.11,-0.10,0.07,0.16
11.504,0.06,-0.12,0.16,0.21
11.514,0.09,-0.13,0.29,0.33
11.524,0.12,-0.15,0.28,0.34
11.534,0.17,-0.15,0.15,0.27
11.544,0.16,-0.11,0.02,0.20
11.554,0.11,-0.05,-0.07,0.14
11.564,0.08,0.02,-0.05,0.09
11.574,0.03,0.05,0.01,0.06
11.585,0.00,0.07,0.04,0.08
11.594,-0.01,0.05,0.03,0.06
11.605,0.02,0.05,0.04,0.07
11.615,0.06,0.03,0.06,0.09
11.625,0.10,0.01,0.08,0.13
11.635,0.12,-0.01,0.07,0.14
11.645,0.08,-0.03,0.02,0.09
11.655,0.02,-0.04,0.04,0.06
11.665,-0.05,-0.04,0.05,0.08
11.675,-0.05,-0.05,0.09,0.11
11.685,-0.03,-0.04,0.09,0.10
11.695,0.02,-0.08,0.07,0.10
11.705,0.06,-0.09,0.04,0.11
11.715,0.09,-0.10,0.02,0.13
11.725,0.10,-0.09,0.03,0.13
11.735,0.09,-0.09,0.04,0.14
11.745,0.09,-0.07,0.07,0.13
11.755,0.08,-0.01,0.09,0.12
11.766,0.08,0.04,0.07,0.12
11.775,0.06,0.08,0.02,0.10
11.786,0.04,0.10,0.00,0.11
11.796,0.04,0.06,-0.02,0.08
11.806,0.02,-0.01,-0.01,0.02
11.816,0.03,-0.06,0.02,0.07
11.826,0.05,-0.08,0.04,0.10
11.836,0.05,-0.10,0.01,0.11
11.846,0.06,-0.09,-0.02,0.11
11.856,0.05,-0.05,-0.05,0.08
11.866,0.03,-0.04,-0.03,0.06
11.876,0.03,-0.01,-0.02,0.03
11.886,0.01,-0.02,-0.00,0.02
11.896,0.04,-0.04,-0.01,0.05
11.906,0.06,-0.05,0.02,0.08
11.916,0.08,-0.05,0.03,0.10
11.926,0.07,-0.06,0.04,0.10
11.936,0.07,-0.05,0.04,0.09
11.947,0.05,-0.03,0.01,0.06
11.956,0.02,-0.04,0.01,0.04
11.967,0.02,-0.04,0.01,0.05
11.977,0.04,-0.05,0.03,0.07
11.987,0.04,-0.05,0.05,0.09
11.997,0.07,-0.03,0.05,0.09
12.007,0.07,-0.01,0.03,0.07
12.017,0.06,-0.02,0.01,0.06
12.027,0.04,-0.02,-0.02,0.05
12.037,0.04,0.00,-0.01,0.05
12.047,0.03,-0.01,-0.03,0.04
12.057,0.04,-0.03,-0.01,0.05
12.067,0.05,-0.07,-0.02,0.09
12.077,0.05,-0.07,-0.01,0.09
12.087,0.05,-0.05,0.02,0.08
12.097,0.04,-0.05,0.01,0.07
12.107,0.02,-0.07,0.01,0.07
12.117,0.02,-0.03,0.04,0.05
12.127,0.05,0.03,0.05,0.08
12.137,0.05,0.07,0.02,0.09
12.148,0.04,0.08,-0.03,0.10
12.158,0.04,0.06,-0.07,0.11
12.168,0.05,0.03,-0.06,0.09
12.178,0.05,0.01,-0.05,0.07
12.188,0.03,-0.04,-0.01,0.05
12.198,0.01,-0.09,0.02,0.09
12.208,-0.02,-0.14,0.08,0.16
12.218,-0.00,-0.13,0.12,0.17
12.228,0.04,-0.07,0.11,0.14
12.238,0.07,-0.06,0.10,0.14
12.248,0.09,-0.04,0.08,0.13
12.258,0.08,-0.01,0.03,0.08
12.268,0.06,-0.03,0.02,0.07
12.278,0.07,-0.04,0.02,0.08
12.288,0.06,-0.04,0.03,0.08
12.298,0.06,-0.06,0.04,0.09
12.308,0.03,-0.03,0.03,0.05
12.319,0.03,-0.01,0.00,0.03
12.329,0.04,0.03,-0.00,0.05
12.339,0.06,0.04,0.01,0.07
12.349,0.07,0.03,0.02,0.08
12.359,0.07,0.01,0.03,0.07
12.369,0.07,0.00,0.03,0.08
12.379,0.08,-0.03,0.02,0.08
12.389,0.09,-0.05,0.02,0.11
12.399,0.08,-0.06,0.00,0.10
12.409,0.04,-0.04,0.03,0.07
12.419,0.05,-0.07,0.06,0.10
12.429,0.04,-0.09,0.05,0.11
12.439,0.04,-0.06,0.06,0.10
12.449,0.06,-0.01,0.04,0.07
12.459,0.07,-0.01,0.01,0.07
12.469,0.08,0.03,-0.01,0.09
12.479,0.09,0.02,-0.04,0.10
12.489,0.09,0.02,-0.03,0.09
12.500,0.07,-0.01,-0.01,0.08
12.510,0.05,-0.04,0.02,0.07
12.520,0.02,-0.04,0.06,0.08
12.530,0.01,-0.05,0.05,0.07
12.540,0.04,-0.05,0.05,0.09
12.550,0.05,-0.02,0.01,0.05
12.560,0.06,0.01,-0.01,0.06
12.570,0.04,-0.02,-0.02,0.05
12.580,0.03,-0.06,-0.03,0.07
12.590,0.01,-0.10,-0.03,0.10
12.600,0.02,-0.13,-0.02,0.13
12.610,0.03,-0.11,-0.04,0.12
12.620,0.07,-0.07,-0.02,0.10
12.630,0.06,-0.02,-0.01,0.06
12.640,0.04,0.02,-0.03,0.05
12.650,0.01,0.02,-0.03,0.04
12.660,-0.02,0.02,-0.03,0.05
12.670,-0.06,0.00,0.01,0.06
12.681,-0.02,0.01,0.01,0.03
12.691,0.01,0.03,0.01,0.03
12.701,0.06,0.03,0.01,0.07
12.711,0.08,0.03,-0.00,0.09
12.721,0.06,-0.02,-0.01,0.07
12.731,0.06,-0.07,0.01,0.09
12.741,0.03,-0.09,0.04,0.11
12.751,0.07,-0.09,0.04,0.12
12.761,0.10,-0.08,0.06,0.15
12.771,0.11,-0.07,0.03,0.13
12.781,0.09,-0.03,0.03,0.10
12.791,0.06,-0.01,0.02,0.07
12.801,0.04,-0.00,0.00,0.04
12.811,0.02,0.00,-0.01,0.02
12.821,0.01,-0.02,0.01,0.03
12.831,0.02,-0.03,0.06,0.07
12.841,0.04,-0.00,0.09,0.10
12.851,0.07,0.02,0.05,0.09
12.861,0.11,0.00,0.04,0.12
12.872,0.14,-0.01,0.01,0.14
12.881,0.15,-0.01,0.03,0.15
12.892,0.10,-0.01,0.02,0.11
12.902,0.06,-0.02,0.02,0.06
12.912,0.03,-0.04,0.01,0.05
12.922,0.02,-0.05,0.02,0.06
12.932,0.05,-0.03,0.04,0.07
12.942,0.09,-0.02,0.08,0.12
12.952,0.13,-0.03,0.09,0.16
12.962,0.12,-0.02,0.05,0.13
12.972,0.08,-0.02,-0.00,0.08
12.982,0.06,-0.03,-0.00,0.06
12.992,0.06,-0.05,0.02,0.08
13.002,0.07,-0.05,0.03,0.09
13.012,0.03,-0.05,0.03,0.07
13.022,0.04,-0.04,0.00,0.05
13.033,0.04,-0.01,-0.02,0.04
13.042,-0.00,0.02,-0.00,0.02
13.053,-0.03,0.01,0.01,0.04
13.063,-0.02,0.05,0.00,0.05
13.073,-0.03,0.03,-0.03,0.05
13.083,-0.01,-0.02,-0.02,0.04
13.093,-0.02,-0.04,-0.03,0.05
13.103,-0.01,-0.02,-0.02,0.03
13.113,-0.01,0.01,0.01,0.02
13.123,0.02,-0.01,0.03,0.04
13.133,0.01,-0.09,0.07,0.11
13.143,0.01,-0.15,0.12,0.19
13.153,0.01,-0.16,0.12,0.20
13.163,0.02,-0.11,0.12,0.17
13.173,0.04,-0.06,0.08,0.11
13.183,0.07,-0.05,0.08,0.11
13.193,0.08,-0.04,0.03,0.10
13.203,0.09,0.00,-0.02,0.09
13.214,0.06,0.01,-0.07,0.09
13.224,0.01,0.01,-0.06,0.07
13.234,-0.02,0.03,-0.01,0.04
13.244,-0.00,0.04,0.06,0.07
13.254,0.02,0.02,0.06,0.07
13.264,0.08,-0.02,0.04,0.09
13.274,0.09,-0.04,0.02,0.10
13.284,0.07,-0.06,-0.03,0.09
13.294,0.04,-0.04,-0.06,0.08
13.304,0.02,-0.01,-0.06,0.06
13.314,0.00,-0.01,-0.05,0.05
13.324,-0.02,-0.01,-0.03,0.04
13.334,0.02,-0.03,-0.03,0.05
13.344,0.03,-0.05,-0.04,0.07
13.354,0.05,-0.05,-0.03,0.08
13.364,0.05,-0.04,-0.02,0.07
13.374,0.05,-0.02,-0.02,0.06
13.384,0.05,-0.04,-0.00,0.07
13.394,0.04,-0.06,-0.00,0.07
13.404,0.05,-0.05,-0.02,0.07
13.415,0.06,-0.04,-0.02,0.07
13.425,0.06,-0.01,0.01,0.06
13.435,0.07,-0.00,0.03,0.08
13.445,0.04,0.02,0.01,0.05
13.455,0.03,0.02,-0.01,0.04
13.465,0.02,0.01,-0.02,0.03
13.475,0.02,-0.01,-0.03,0.03
13.485,0.03,-0.03,-0.04,0.06
13.495,0.04,-0.08,-0.02,0.09
13.505,0.05,-0.09,-0.01,0.11
13.515,0.07,-0.05,0.01,0.09
13.525,0.06,0.01,-0.00,0.06
13.535,0.05,0.03,-0.04,0.07
13.545,0.02,0.03,-0.09,0.10
13.555,-0.02,0.03,-0.10,0.10
13.566,-0.02,0.01,-0.08,0.08
13.575,-0.02,-0.03,-0.08,0.08
13.586,-0.00,-0.05,-0.08,0.10
13.596,0.01,-0.08,-0.08,0.11
13.606,0.03,-0.08,-0.04,0.09
13.616,0.02,-0.07,0.00,0.08
13.626,0.02,-0.05,0.02,0.06
13.636,-0.00,0.00,0.04,0.04
13.646,0.03,0.05,0.01,0.06
13.656,0.04,0.05,-0.02,0.07
13.666,0.06,0.01,-0.04,0.07
13.676,0.07,-0.03,-0.04,0.09
13.686,0.07,-0.04,-0.03,0.08
13.696,0.04,-0.04,-0.00,0.05
13.706,0.04,-0.03,-0.01,0.05
13.716,0.02,-0.04,-0.03,0.05
13.726,0.01,-0.04,-0.04,0.06
13.736,-0.00,-0.02,-0.06,0.07
13.747,-0.01,0.00,-0.08,0.08
13.757,-0.01,0.02,-0.08,0.08
13.767,0.00,0.01,-0.06,0.06
13.777,0.00,0.00,-0.01,0.01
13.787,0.01,0.01,0.00,0.01
13.797,0.01,-0.01,-0.02,0.02
13.807,0.05,-0.04,-0.00,0.06
13.817,0.07,-0.08,-0.02,0.10
13.827,0.05,-0.09,-0.01,0.11
13.837,0.06,-0.08,0.02,0.10
13.847,0.07,-0.07,0.01,0.10
13.857,0.06,-0.05,-0.02,0.08
13.867,0.06,-0.04,-0.08,0.11
13.877,0.00,-0.03,-0.06,0.07
13.887,-0.00,-0.01,-0.00,0.01
13.897,-0.02,-0.00,0.01,0.02
13.907,-0.01,0.00,0.01,0.02
13.918,0.02,-0.01,-0.01,0.02
13.927,0.02,0.01,0.01,0.02
13.938,0.04,0.02,0.03,0.06
13.948,0.05,0.03,0.04,0.07
13.958,0.06,0.04,0.03,0.07
13.968,0.10,0.01,-0.02,0.10
13.978,0.06,0.02,-0.02,0.07
13.988,0.04,0.06,-0.01,0.07
13.998,0.03,0.03,-0.06,0.07
14.008,-0.01,-0.00,-0.04,0.04
14.018,-0.01,-0.03,-0.02,0.04
14.028,-0.01,-0.11,-0.01,0.11
14.038,-0.02,-0.14,0.00,0.14
14.048,-0.01,-0.15,0.03,0.15
14.058,0.00,-0.10,0.07,0.12
14.068,0.02,-0.04,0.07,0.08
14.078,0.03,0.00,0.02,0.04
14.088,0.00,0.03,-0.03,0.04
14.099,-0.00,0.03,-0.06,0.07
14.108,0.03,0.01,-0.01,0.03
14.119,0.06,-0.05,0.06,0.10
14.129,0.07,-0.06,0.10,0.14
14.139,0.07,-0.03,0.06,0.09
14.149,0.04,-0.00,-0.02,0.04
14.159,0.03,0.01,-0.05,0.06
14.169,-0.00,0.03,-0.05,0.06
14.179,0.01,0.03,-0.03,0.05
14.189,0.01,0.00,-0.01,0.02
14.199,0.02,-0.05,-0.00,0.06
14.209,0.03,-0.08,0.01,0.09
14.219,0.05,-0.08,0.01,0.09
14.229,0.06,-0.05,0.02,0.08
14.239,0.06,-0.04,-0.00,0.07
14.249,0.05,-0.02,0.00,0.05
14.259,0.04,0.00,-0.00,0.04
14.269,0.03,-0.02,-0.03,0.05
14.280,0.03,-0.01,-0.04,0.05
14.289,0.04,0.02,-0.04,0.06
14.300,0.04,0.02,-0.02,0.05
14.310,0.05,-0.00,0.02,0.05
14.320,0.03,-0.02,0.02,0.04
14.330,0.04,-0.03,-0.01,0.06
14.340,0.03,-0.05,0.00,0.06
14.350,0.02,-0.07,-0.01,0.08
14.360,0.04,-0.08,-0.00,0.09
14.370,0.08,-0.05,-0.00,0.09
14.380,0.10,-0.04,0.01,0.11
14.390,0.11,-0.02,0.01,0.11
14.400,0.10,-0.04,-0.00,0.11
14.410,0.09,-0.06,0.01,0.11
14.420,0.04,-0.07,0.03,0.09
14.430,0.01,-0.05,0.07,0.08
14.440,-0.01,-0.03,0.06,0.06
14.450,0.01,-0.01,0.04,0.04
14.461,0.03,-0.00,0.01,0.03
14.470,0.04,0.01,0.00,0.04
14.481,0.06,0.02,-0.02,0.07
14.491,0.08,-0.01,-0.03,0.08
14.501,0.07,-0.05,0.00,0.09
14.511,0.05,-0.06,0.03,0.09
14.521,0.05,-0.04,0.04,0.08
14.531,0.03,-0.02,0.01,0.04
14.541,0.03,-0.04,-0.02,0.05
14.551,0.03,-0.05,-0.03,0.07
14.561,0.04,-0.06,-0.01,0.07
14.571,0.05,-0.04,0.01,0.06
14.581,0.03,-0.04,0.06,0.08
14.591,0.02,-0.07,0.07,0.10
14.601,0.01,-0.10,0.06,0.11
14.611,0.04,-0.11,0.07,0.13
14.621,0.04,-0.10,0.05,0.12
14.631,0.04,-0.06,0.03,0.08
14.642,0.03,-0.01,-0.02,0.04
14.652,0.02,0.03,-0.09,0.09
14.662,0.01,0.06,-0.09,0.11
14.672,0.02,0.07,-0.06,0.10
14.682,0.02,0.06,0.04,0.08
14.692,0.06,0.03,0.12,0.14
14.702,0.06,0.01,0.12,0.14
14.712,0.07,-0.00,0.06,0.09
14.722,0.06,-0.01,0.02,0.07
14.732,0.04,-0.04,-0.00,0.06
14.742,0.03,-0.03,0.04,0.06
14.752,0.01,-0.01,0.07,0.07
14.762,0.03,-0.02,0.02,0.05
14.772,0.04,-0.03,-0.02,0.06
14.782,0.03,-0.02,-0.06,0.07
14.792,0.03,-0.01,-0.04,0.05
14.802,0.01,-0.01,-0.02,0.02
14.812,-0.01,-0.01,0.01,0.02
14.822,-0.01,-0.04,0.03,0.05
14.833,0.01,-0.04,0.04,0.06
14.843,0.02,-0.03,0.06,0.08
14.853,0.03,-0.04,0.01,0.05
14.863,0.04,-0.06,0.01,0.07
14.873,0.02,-0.08,0.08,0.12
14.883,0.03,-0.06,0.09,0.11
14.893,0.04,-0.04,0.03,0.06
14.903,0.03,-0.01,-0.03,0.05
14.913,-0.00,-0.02,-0.04,0.04
14.923,-0.01,-0.03,-0.03,0.04
14.933,-0.01,-0.03,0.02,0.04
14.943,0.00,-0.05,0.06,0.07
14.953,0.02,-0.06,0.06,0.09
14.963,0.04,-0.06,0.07,0.10
14.973,0.05,-0.06,0.05,0.09
14.983,0.07,-0.03,0.03,0.08
14.993,0.04,-0.01,0.02,0.05
15.003,0.03,0.00,-0.01,0.03
15.014,0.01,0.00,-0.04,0.04
15.024,-0.01,-0.02,-0.07,0.07
15.034,-0.02,-0.01,-0.06,0.07
15.044,-0.02,-0.01,-0.03,0.04
15.054,-0.02,-0.04,0.02,0.05
15.064,-0.00,-0.06,0.06,0.08
15.074,0.02,-0.06,0.05,0.08
15.084,0.04,-0.05,0.02,0.07
15.094,0.05,-0.05,-0.00,0.08
15.104,0.04,-0.04,0.01,0.06
15.114,0.03,-0.06,0.03,0.07
15.124,0.04,-0.05,0.04,0.07
15.134,0.08,-0.02,0.04,0.09
15.144,0.11,0.01,0.04,0.12
15.154,0.11,0.03,0.01,0.12
15.164,0.08,0.02,0.00,0.09
15.174,0.05,0.01,0.03,0.06
15.185,0.06,-0.02,0.09,0.11
15.195,0.06,-0.06,0.11,0.14
15.205,0.08,-0.07,0.08,0.14
15.215,0.07,-0.04,0.03,0.09
15.225,0.06,-0.01,-0.03,0.07
15.235,0.03,-0.01,-0.02,0.03
15.245,0.01,0.01,-0.02,0.03
15.255,0.02,-0.01,-0.03,0.04
15.265,0.01,-0.02,0.00,0.02
15.275,-0.00,-0.03,0.01,0.03
15.285,0.04,-0.05,-0.01,0.07
15.295,0.08,-0.04,-0.00,0.09
15.305,0.05,0.01,0.02,0.06
15.315,0.04,0.03,0.02,0.06
15.325,0.06,0.01,0.04,0.07
15.335,0.06,0.01,0.06,0.08
15.345,0.07,0.01,0.02,0.07
15.355,0.07,-0.00,0.00,0.07
15.366,0.06,-0.03,-0.00,0.07
15.376,0.06,-0.03,-0.02,0.07
15.386,0.04,-0.03,0.03,0.05
15.396,0.03,-0.05,0.05,0.08
15.406,0.01,-0.09,0.05,0.10
15.416,-0.00,-0.10,0.02,0.10
15.426,-0.01,-0.09,-0.02,0.09
15.436,-0.03,-0.07,-0.05,0.10
15.446,-0.01,-0.06,-0.06,0.08
15.456,-0.00,0.00,-0.04,0.04
15.466,0.02,0.03,-0.02,0.04
15.476,0.04,0.04,0.02,0.06
15.486,0.04,0.02,0.01,0.05
15.496,0.07,0.01,0.04,0.08
15.506,0.11,-0.03,0.00,0.12
15.516,0.13,-0.04,-0.02,0.14
15.526,0.13,-0.02,-0.03,0.13
15.536,0.10,-0.01,-0.03,0.11
15.547,0.06,0.01,-0.03,0.07
15.556,0.04,0.01,-0.04,0.06
15.566,0.02,-0.01,-0.04,0.05
15.577,0.01,-0.03,-0.02,0.04
15.587,0.02,-0.02,-0.01,0.03
15.597,0.03,-0.02,0.02,0.05
15.607,0.07,-0.03,0.01,0.08
15.617,0.07,-0.03,0.00,0.08
15.627,0.05,-0.04,-0.00,0.07
15.637,0.03,-0.04,-0.01,0.05
15.647,0.03,-0.04,-0.03,0.06
15.657,0.04,-0.02,-0.01,0.05
15.667,0.05,-0.04,-0.01,0.07
15.677,0.04,-0.06,-0.01,0.08
15.687,0.07,-0.05,0.01,0.09
15.697,0.07,-0.02,0.03,0.08
15.707,0.06,-0.01,0.01,0.06
15.718,0.04,0.00,-0.02,0.04
15.728,0.02,-0.00,-0.02,0.03
15.738,0.00,-0.03,-0.01,0.03
15.748,0.03,-0.00,-0.01,0.03
15.758,0.05,0.02,0.02,0.06
15.768,0.07,0.00,0.01,0.07
15.778,0.06,-0.01,0.01,0.06
15.788,0.05,-0.03,0.00,0.06
15.798,0.02,-0.06,-0.01,0.07
15.808,0.03,-0.09,0.03,0.10
15.818,0.06,-0.08,0.09,0.14
15.828,0.10,-0.05,0.10,0.15
15.838,0.10,-0.03,0.10,0.14
15.848,0.10,0.02,0.09,0.14
15.858,0.11,0.06,0.09,0.16
15.868,0.07,0.06,0.09,0.13
15.878,0.05,-0.02,0.06,0.08
15.889,0.04,-0.08,0.01,0.09
15.898,0.07,-0.08,-0.03,0.10
15.909,0.07,-0.07,-0.04,0.11
15.919,0.07,-0.04,-0.06,0.10
15.929,0.04,-0.01,-0.09,0.09
15.939,0.00,-0.00,-0.08,0.08
15.949,0.00,0.02,-0.07,0.07
15.959,0.02,0.03,-0.11,0.12
15.969,-0.00,0.01,-0.12,0.13
15.979,-0.03,-0.01,-0.05,0.06
15.989,-0.03,-0.06,0.02,0.07
15.999,-0.01,-0.07,0.06,0.09
16.009,0.01,-0.06,0.05,0.08
16.019,0.04,-0.03,0.02,0.06
16.029,0.03,0.00,-0.02,0.04
16.039,-0.00,0.02,-0.06,0.07
16.049,-0.02,0.02,-0.06,0.07
16.059,-0.01,0.00,-0.03,0.03
16.069,0.00,-0.03,-0.01,0.03
16.079,0.02,-0.04,0.01,0.05
16.090,0.02,-0.04,-0.01,0.04
16.100,0.01,-0.01,-0.05,0.05
16.110,-0.01,-0.01,-0.07,0.07
16.120,0.00,-0.01,-0.08,0.08
16.130,0.01,0.00,-0.06,0.06
16.140,0.02,0.01,-0.04,0.05
16.150,0.05,0.02,-0.05,0.07
16.160,0.06,0.01,-0.07,0.09
16.170,0.05,0.01,-0.09,0.10
16.180,0.02,-0.01,-0.07,0.07
16.190,-0.00,-0.03,-0.08,0.08
16.200,-0.02,-0.05,-0.07,0.09
16.210,-0.03,-0.01,-0.06,0.07
16.220,-0.03,0.05,-0.07,0.09
16.230,-0.01,0.02,-0.08,0.08
16.240,0.00,0.01,-0.06,0.06
16.250,-0.01,0.02,-0.07,0.07
16.261,-0.02,0.00,-0.06,0.06
16.271,-0.00,-0.03,-0.08,0.08
16.281,0.02,-0.04,-0.05,0.07
16.291,0.04,-0.06,-0.04,0.09
16.301,0.02,-0.06,-0.06,0.09
16.311,-0.01,-0.04,-0.08,0.09
16.321,-0.00,-0.02,-0.05,0.05
16.331,0.03,0.03,-0.03,0.05
16.341,0.04,0.05,-0.04,0.07
16.351,0.03,0.05,-0.08,0.10
16.361,0.02,0.05,-0.08,0.09
16.371,0.01,0.05,-0.06,0.07
16.381,-0.02,0.02,-0.04,0.05
16.391,-0.04,-0.02,-0.01,0.05
16.401,-0.03,-0.04,-0.02,0.05
16.411,-0.01,-0.04,-0.03,0.05
16.421,0.02,-0.02,-0.01,0.03
16.431,0.04,-0.02,-0.01,0.05
16.442,0.06,-0.03,-0.04,0.08
16.452,0.04,-0.04,-0.02,0.06
16.462,0.02,-0.06,-0.00,0.07
16.472,0.00,-0.09,-0.01,0.09
16.482,0.01,-0.09,-0.02,0.09
16.492,0.03,-0.08,0.02,0.08
16.502,0.07,-0.03,0.07,0.11
16.512,0.09,0.03,0.08,0.12
16.522,0.08,0.05,0.03,0.10
16.532,0.08,0.05,-0.05,0.11
16.542,0.05,0.04,-0.08,0.10
16.552,0.02,0.04,-0.07,0.09
16.562,-0.00,0.02,-0.04,0.04
16.572,0.01,-0.02,-0.02,0.03
16.582,-0.00,-0.03,-0.01,0.03
16.592,0.01,-0.02,-0.03,0.04
16.602,0.04,-0.02,-0.05,0.07
16.612,0.02,-0.02,-0.03,0.04
16.622,0.03,-0.04,0.02,0.05
16.633,0.07,-0.06,0.06,0.11
16.642,0.09,-0.05,0.08,0.13
16.653,0.12,-0.02,0.05,0.13
16.663,0.14,-0.01,0.05,0.15
16.673,0.15,-0.01,0.02,0.16
16.683,0.13,-0.03,-0.00,0.13
16.693,0.11,-0.05,-0.01,0.12
16.703,0.06,-0.04,-0.01,0.08
16.713,0.02,-0.04,-0.00,0.04
16.723,-0.00,-0.01,-0.02,0.03
16.733,-0.00,0.02,-0.01,0.02
16.743,0.02,0.03,-0.00,0.04
16.753,0.06,0.01,0.02,0.07
16.763,0.10,-0.02,0.03,0.11
16.773,0.04,0.02,0.06,0.07
16.783,0.19,0.00,0.01,0.19
16.793,0.20,-0.07,-0.10,0.23
16.804,0.13,-0.07,-0.07,0.16
16.814,0.17,-0.05,0.03,0.18
16.824,0.19,-0.04,0.10,0.22
16.834,0.30,-0.03,0.05,0.30
16.844,0.28,-0.05,-0.04,0.28
16.854,0.16,-0.01,0.00,0.16
16.864,0.10,-0.02,0.06,0.12
16.874,0.07,-0.01,0.16,0.17
16.884,0.22,-0.05,0.14,0.27
16.894,0.19,-0.06,0.09,0.23
16.904,0.18,-0.00,0.11,0.21
16.914,0.27,-0.04,0.03,0.28
16.924,0.20,-0.07,-0.00,0.21
16.934,0.16,-0.01,0.05,0.17
16.944,0.15,-0.00,0.08,0.17
16.954,0.14,-0.04,0.08,0.16
16.964,0.14,-0.05,0.01,0.15
16.975,0.15,-0.02,0.00,0.15
16.984,0.14,0.00,-0.02,0.14
16.995,0.14,0.03,-0.04,0.15
17.005,0.14,0.05,-0.06,0.16
17.015,0.14,0.03,-0.06,0.16
17.025,0.12,-0.00,-0.04,0.12
17.035,0.10,-0.04,-0.02,0.11
17.045,0.12,-0.03,-0.00,0.12
17.055,0.14,-0.02,0.01,0.15
17.065,0.16,0.03,-0.04,0.16
17.075,0.10,0.08,-0.10,0.16
17.085,0.06,0.08,-0.14,0.17
17.095,0.08,0.01,-0.14,0.16
17.105,0.06,-0.01,-0.15,0.16
17.115,0.05,-0.03,-0.17,0.18
17.125,0.03,-0.00,-0.20,0.20
17.135,-0.03,0.06,-0.22,0.23
17.145,-0.09,0.13,-0.25,0.30
17.155,-0.12,0.20,-0.28,0.36
17.166,-0.13,0.08,-0.35,0.38
17.176,-0.23,0.08,-0.34,0.42
17.186,-0.23,0.13,-0.32,0.41
17.196,-0.25,0.12,-0.34,0.44
17.206,-0.25,0.03,-0.33,0.42
17.216,-0.23,-0.04,-0.23,0.33
17.226,-0.20,-0.07,-0.16,0.26
17.236,-0.17,-0.08,-0.14,0.23
17.246,-0.14,-0.05,-0.12,0.19
17.256,-0.08,-0.06,-0.06,0.12
17.266,-0.05,-0.07,0.00,0.08
17.276,0.01,-0.03,0.03,0.04
17.286,0.05,-0.00,-0.02,0.06
17.296,0.06,0.03,-0.05,0.08
17.306,0.03,0.07,-0.05,0.09
17.316,0.04,0.10,-0.08,0.13
17.326,0.04,0.05,-0.08,0.11
17.336,0.03,0.10,-0.04,0.11
17.347,-0.01,0.15,-0.01,0.16
17.357,0.02,0.17,-0.00,0.17
17.367,0.03,0.03,-0.00,0.04
17.377,0.02,-0.05,0.05,0.08
17.387,0.08,-0.03,0.14,0.17
17.397,0.15,-0.08,0.18,0.25
17.407,0.22,-0.18,0.18,0.33
17.417,0.25,-0.21,0.19,0.38
17.427,0.28,-0.19,0.21,0.40
17.437,0.29,-0.14,0.22,0.39
17.447,0.23,-0.06,0.18,0.30
17.457,0.14,0.06,0.06,0.16
17.467,0.01,0.16,-0.03,0.16
17.477,-0.12,0.21,-0.06,0.25
17.487,-0.23,0.12,0.06,0.26
17.497,-0.18,-0.06,0.12,0.23
17.507,0.00,-0.25,0.22,0.34
17.517,0.21,-0.32,0.34,0.51
17.528,0.34,-0.34,0.32,0.58
17.538,0.35,-0.30,0.25,0.53
17.548,0.21,-0.18,0.15,0.31
17.558,0.06,-0.10,0.10,0.16
17.568,-0.08,-0.08,0.12,0.16
17.578,-0.12,-0.26,0.16,0.33
17.588,-0.13,-0.39,0.24,0.48
17.598,0.04,-0.29,0.39,0.49
17.608,0.47,0.00,0.36,0.59
17.618,0.71,0.29,0.23,0.80
17.628,0.50,0.17,0.14,0.54
17.638,0.06,-0.20,0.12,0.24
17.648,-0.20,-0.41,0.23,0.51
17.658,-0.15,-0.40,0.30,0.52
17.668,-0.06,-0.28,0.32,0.43
17.678,0.02,-0.13,0.31,0.34
17.688,0.03,-0.06,0.27,0.28
17.699,0.03,-0.11,0.21,0.24
17.708,0.19,-0.02,0.17,0.26
17.719,0.17,0.07,0.08,0.20
17.729,0.16,0.13,0.02,0.20
17.739,0.10,0.14,0.01,0.17
17.749,0.04,0.08,0.07,0.11
17.759,-0.01,-0.05,0.15,0.16
17.769,-0.03,-0.21,0.25,0.33
17.779,-0.03,-0.26,0.25,0.36
17.789,-0.10,-0.26,0.20,0.35
17.799,-0.10,-0.22,0.17,0.30
17.809,-0.06,-0.15,0.11,0.19
17.819,-0.03,-0.11,0.07,0.13
17.829,0.01,-0.05,0.02,0.06
17.839,0.02,-0.02,-0.00,0.03
17.849,-0.00,0.02,0.01,0.02
17.859,-0.03,0.02,0.05,0.06
17.869,-0.03,0.02,0.05,0.06
17.880,-0.03,-0.02,0.05,0.06
17.890,0.03,-0.08,0.06,0.11
17.900,0.08,-0.11,0.06,0.15
17.910,0.07,-0.10,0.05,0.13
17.920,0.05,-0.05,0.04,0.09
17.930,0.02,-0.02,0.05,0.06
17.940,-0.01,0.01,0.03,0.03
17.950,-0.05,-0.00,0.18,0.18
17.960,0.17,0.03,-0.01,0.18
17.970,0.13,0.06,0.07,0.16
17.980,0.03,-0.12,0.17,0.20
17.990,0.14,-0.10,0.08,0.18
18.000,0.13,-0.05,0.09,0.17
18.010,0.17,0.01,0.07,0.19
18.020,0.19,0.02,0.04,0.20
18.030,0.15,0.03,0.06,0.17
