time,ax,ay,az,atotal
0.000,0.06,-0.02,0.11,0.13
0.010,0.08,-0.04,0.12,0.15
0.020,0.07,-0.08,0.12,0.16
0.030,0.03,-0.09,0.09,0.13
0.040,-0.01,-0.07,0.08,0.11
0.050,-0.03,-0.07,0.10,0.13
0.060,-0.01,-0.09,0.09,0.12
0.070,0.01,-0.09,0.06,0.11
0.080,0.10,-0.08,0.05,0.13
0.090,0.08,-0.08,0.04,0.12
0.100,0.01,-0.07,0.02,0.07
0.110,-0.05,-0.05,0.00,0.07
0.121,-0.11,-0.10,0.04,0.15
0.131,-0.16,-0.17,0.17,0.28
0.141,-0.11,-0.08,0.25,0.29
0.151,0.01,0.05,0.25,0.26
0.161,0.08,0.03,0.21,0.23
0.171,0.34,0.10,0.21,0.41
0.181,0.27,-0.02,0.07,0.28
0.191,0.02,-0.22,0.03,0.22
0.201,0.09,-0.15,0.06,0.19
0.211,0.03,-0.09,0.12,0.15
0.221,-0.03,-0.06,0.14,0.15
0.231,0.02,-0.03,0.14,0.14
0.241,0.16,0.06,0.14,0.22
0.251,0.05,0.02,0.10,0.12
0.261,-0.04,-0.11,0.13,0.17
0.271,-0.02,-0.07,0.18,0.20
0.281,0.04,-0.02,0.21,0.22
0.292,0.10,-0.02,0.21,0.23
0.302,0.14,-0.07,0.17,0.23
0.312,0.19,-0.10,0.15,0.26
0.322,0.23,-0.13,0.15,0.30
0.332,0.26,-0.14,0.15,0.33
0.342,0.23,-0.12,0.15,0.30
0.352,0.21,-0.07,0.13,0.26
0.362,0.17,-0.02,0.10,0.19
0.372,0.14,0.05,0.07,0.17
0.382,0.10,0.05,0.07,0.13
0.392,0.06,0.03,0.04,0.08
0.402,0.01,-0.06,0.07,0.09
0.412,-0.03,-0.11,0.13,0.17
0.422,0.00,-0.17,0.19,0.25
0.432,-0.01,-0.28,0.19,0.34
0.442,0.08,-0.14,0.14,0.21
0.453,0.06,-0.07,0.06,0.11
0.463,0.05,-0.04,0.05,0.09
0.473,0.07,0.03,0.04,0.08
0.483,0.03,0.04,0.01,0.05
0.493,-0.05,0.01,0.04,0.07
0.503,-0.12,0.01,0.08,0.14
0.513,-0.15,0.03,0.10,0.19
0.523,-0.19,-0.07,0.17,0.26
0.533,-0.18,-0.16,0.20,0.32
0.543,-0.12,-0.18,0.18,0.29
0.553,-0.01,-0.17,0.17,0.25
0.563,0.11,-0.15,0.18,0.25
0.573,0.12,-0.15,0.21,0.29
0.583,0.08,-0.12,0.21,0.26
0.593,0.00,-0.06,0.16,0.17
0.603,-0.05,-0.03,0.11,0.12
0.613,-0.07,-0.11,0.09,0.16
0.623,-0.01,-0.24,0.12,0.27
0.634,0.10,-0.27,0.15,0.33
0.644,0.24,-0.20,0.15,0.34
0.654,0.33,-0.08,0.11,0.35
0.664,0.35,-0.03,0.02,0.35
0.674,0.31,-0.03,-0.06,0.32
0.684,0.21,-0.01,-0.12,0.25
0.694,0.11,0.05,-0.10,0.16
0.704,0.07,0.04,-0.07,0.11
0.714,0.08,-0.01,-0.07,0.10
0.724,0.11,-0.03,-0.06,0.13
0.734,0.14,-0.03,-0.04,0.15
0.744,0.18,-0.02,-0.06,0.19
0.754,0.16,-0.04,-0.06,0.17
0.764,0.05,-0.04,-0.04,0.07
0.774,-0.15,0.01,-0.03,0.15
0.784,-0.31,0.10,0.00,0.33
0.794,-0.39,0.15,0.05,0.42
0.804,-0.42,0.09,0.07,0.44
0.815,-0.41,0.06,0.08,0.42
0.825,-0.29,0.08,0.11,0.32
0.835,-0.14,0.09,0.15,0.22
0.845,0.03,0.11,0.15,0.19
0.855,0.17,0.10,0.17,0.26
0.865,0.24,0.09,0.13,0.29
0.875,0.29,0.04,0.13,0.32
0.885,0.32,0.08,0.13,0.35
0.895,0.31,0.12,0.07,0.34
0.905,0.26,0.14,0.00,0.30
0.915,0.19,0.10,-0.01,0.22
0.925,0.14,0.08,-0.00,0.16
0.935,0.13,0.01,-0.02,0.13
0.945,0.20,-0.09,0.00,0.22
0.955,0.30,-0.19,0.02,0.35
0.965,0.43,-0.22,0.03,0.48
0.975,0.49,-0.19,0.01,0.53
0.986,0.52,-0.10,-0.02,0.53
0.995,0.53,0.04,-0.06,0.53
1.006,0.48,0.19,-0.18,0.54
1.016,0.39,0.16,-0.25,0.49
1.026,0.29,0.02,-0.21,0.36
1.036,0.17,-0.02,-0.17,0.24
1.046,0.08,-0.03,-0.18,0.20
1.056,-0.01,-0.09,-0.17,0.19
1.066,-0.04,-0.12,-0.13,0.18
1.076,0.01,-0.10,-0.07,0.12
1.086,0.09,-0.05,-0.04,0.11
1.096,0.08,-0.03,-0.08,0.12
1.106,0.06,-0.03,-0.11,0.12
1.116,0.08,0.00,-0.11,0.14
1.126,0.15,0.02,-0.14,0.21
1.136,0.20,-0.00,-0.21,0.28
1.146,0.22,-0.04,-0.24,0.32
1.156,0.19,0.04,-0.26,0.32
1.167,0.16,0.15,-0.28,0.36
1.177,0.08,0.14,-0.33,0.37
1.187,-0.01,0.11,-0.28,0.30
1.197,-0.08,0.08,-0.19,0.22
1.207,-0.17,0.05,-0.14,0.23
1.217,-0.19,0.05,-0.13,0.24
1.227,-0.22,0.06,-0.19,0.30
1.237,-0.23,0.01,-0.25,0.35
1.247,-0.18,-0.02,-0.25,0.31
1.257,-0.09,-0.05,-0.21,0.23
1.267,0.02,-0.08,-0.16,0.18
1.277,0.07,-0.07,-0.09,0.13
1.287,0.09,-0.05,-0.05,0.11
1.297,0.14,-0.02,-0.04,0.15
1.307,0.16,-0.00,-0.04,0.16
1.317,0.17,0.02,-0.05,0.18
1.328,0.18,0.08,-0.10,0.22
1.337,0.20,0.09,-0.11,0.24
1.348,0.21,0.10,-0.09,0.25
1.358,0.20,0.06,-0.08,0.23
1.368,0.21,-0.01,-0.02,0.21
1.378,0.18,-0.05,0.05,0.19
1.388,0.19,-0.05,0.09,0.22
1.398,0.17,-0.04,0.08,0.20
1.408,0.15,-0.03,0.06,0.17
1.418,0.12,0.02,-0.00,0.12
1.428,0.13,0.07,-0.04,0.15
1.438,0.12,0.09,-0.09,0.18
1.448,0.14,0.05,-0.07,0.16
1.458,0.15,0.03,-0.05,0.16
1.468,0.17,0.06,-0.06,0.19
1.478,0.17,0.06,-0.06,0.19
1.488,0.15,0.02,-0.07,0.16
1.498,0.10,-0.03,-0.10,0.15
1.508,0.02,-0.06,-0.09,0.11
1.519,0.03,-0.03,-0.06,0.07
1.529,0.08,0.00,-0.02,0.09
1.539,0.15,-0.00,-0.04,0.15
1.549,0.13,0.01,-0.07,0.14
1.559,0.06,0.01,-0.08,0.10
1.569,-0.03,0.01,-0.08,0.09
1.579,-0.06,0.00,-0.10,0.12
1.589,-0.06,-0.07,-0.11,0.14
1.599,-0.05,-0.08,-0.14,0.16
1.609,-0.01,0.00,-0.12,0.12
1.619,-0.01,0.10,-0.11,0.14
1.629,0.00,0.14,-0.11,0.18
1.639,-0.02,0.07,-0.07,0.10
1.649,-0.04,-0.04,-0.01,0.06
1.659,-0.02,-0.10,0.02,0.10
1.669,-0.03,-0.11,-0.04,0.12
1.679,-0.00,-0.12,-0.06,0.13
1.690,0.03,-0.10,-0.08,0.13
1.700,-0.00,-0.07,-0.12,0.14
1.710,-0.01,-0.01,-0.15,0.15
1.720,-0.05,0.05,-0.15,0.16
1.730,-0.03,0.07,-0.13,0.15
1.740,-0.02,0.04,-0.10,0.11
1.750,-0.01,0.05,-0.04,0.07
1.760,0.04,0.11,-0.03,0.13
1.770,0.07,0.13,-0.03,0.15
1.780,0.10,0.11,-0.02,0.16
1.790,0.13,0.07,-0.02,0.15
1.800,0.14,-0.05,-0.01,0.15
1.810,0.15,-0.09,0.02,0.18
1.820,0.19,-0.03,0.03,0.19
1.830,0.23,0.01,0.06,0.23
1.840,0.22,0.01,0.05,0.23
1.850,0.20,-0.03,0.04,0.20
1.860,0.19,-0.07,0.06,0.21
1.871,0.17,-0.09,0.06,0.20
1.881,0.17,-0.11,0.05,0.21
1.891,0.18,-0.11,0.09,0.23
1.901,0.17,-0.09,0.08,0.21
1.911,0.14,-0.07,0.09,0.18
1.921,0.12,-0.03,0.08,0.14
1.931,0.10,0.00,0.06,0.11
1.941,0.11,0.01,0.05,0.12
1.951,0.10,0.05,-0.01,0.11
1.961,0.10,0.08,-0.03,0.13
1.971,0.09,0.06,-0.01,0.11
1.981,0.06,0.02,0.03,0.07
1.991,0.03,-0.01,0.06,0.07
2.001,0.00,-0.07,0.07,0.09
2.011,-0.03,-0.14,0.06,0.16
2.021,-0.10,-0.17,0.05,0.20
2.032,-0.12,-0.16,0.02,0.20
2.041,-0.08,-0.24,0.07,0.27
2.052,-0.06,-0.29,0.14,0.32
2.062,-0.02,-0.26,0.17,0.32
2.072,0.01,-0.22,0.21,0.31
2.082,0.05,-0.20,0.20,0.29
2.092,0.08,-0.13,0.22,0.27
2.102,0.15,-0.01,0.27,0.31
2.112,0.24,0.06,0.27,0.37
2.122,0.28,0.02,0.20,0.35
2.132,0.23,-0.09,0.08,0.26
2.142,0.18,-0.17,0.04,0.25
2.152,0.21,-0.16,0.08,0.28
2.162,0.26,-0.15,0.08,0.31
2.172,0.30,-0.21,0.12,0.38
2.182,0.27,-0.28,0.14,0.42
2.192,0.28,-0.20,0.13,0.37
2.202,0.29,-0.05,0.12,0.32
2.212,0.22,0.08,0.07,0.25
2.223,0.06,0.12,0.03,0.14
2.233,-0.05,0.12,0.07,0.15
2.243,-0.13,0.10,0.13,0.21
2.253,-0.14,0.02,0.22,0.26
2.263,-0.07,0.00,0.30,0.30
2.273,0.04,0.01,0.35,0.35
2.283,0.11,0.03,0.38,0.40
2.293,0.21,0.07,0.41,0.46
2.303,0.36,0.10,0.43,0.57
2.313,0.49,0.08,0.47,0.68
2.323,0.64,0.03,0.43,0.77
2.333,0.78,-0.05,0.34,0.85
2.343,0.91,-0.11,0.21,0.94
2.353,1.02,-0.22,0.25,1.08
2.363,1.04,-0.33,0.32,1.14
2.373,0.98,-0.39,0.33,1.11
2.383,0.90,-0.27,0.30,0.99
2.394,0.77,-0.14,0.18,0.80
2.404,0.56,-0.06,0.01,0.57
2.414,0.28,-0.10,-0.13,0.33
2.424,0.08,-0.19,-0.12,0.24
2.434,-0.02,-0.23,0.11,0.25
2.444,0.11,-0.07,0.34,0.37
2.454,0.24,0.14,0.39,0.48
2.464,0.32,0.22,0.39,0.55
2.474,0.36,0.20,0.36,0.55
2.484,0.38,0.08,0.29,0.49
2.494,0.40,-0.17,0.39,0.58
2.504,0.52,-0.37,0.56,0.85
2.514,0.67,-0.43,0.69,1.05
2.524,0.75,-0.38,0.65,1.06
2.534,0.86,-0.28,0.71,1.15
2.544,0.95,-0.18,0.78,1.24
2.555,1.04,-0.12,0.89,1.37
2.564,1.08,-0.01,0.78,1.33
2.575,1.00,-0.03,0.55,1.14
2.585,0.83,-0.26,0.48,1.00
2.595,0.74,-0.48,0.60,1.06
2.605,0.72,-0.56,0.70,1.15
2.615,0.73,-0.42,0.76,1.14
2.625,0.88,-0.15,0.82,1.21
2.635,1.12,0.04,0.87,1.42
2.645,1.27,0.01,0.89,1.56
2.655,1.34,-0.11,0.94,1.64
2.665,1.31,-0.21,0.94,1.62
2.675,1.25,-0.16,0.85,1.52
2.685,1.15,0.02,0.72,1.36
2.695,0.99,0.16,0.50,1.12
2.705,0.76,0.24,0.31,0.86
2.715,0.47,0.32,0.27,0.63
2.725,0.27,0.43,0.31,0.60
2.736,0.17,0.56,0.24,0.63
2.746,0.21,0.66,0.01,0.69
2.756,0.21,0.71,-0.27,0.79
2.766,0.12,0.65,-0.55,0.85
2.776,0.00,0.53,-0.71,0.89
2.786,-0.12,0.49,-0.74,0.89
2.796,-0.16,0.50,-0.85,1.00
2.806,-0.12,0.47,-0.91,1.03
2.816,-0.03,0.39,-0.76,0.85
2.826,0.20,0.33,-0.54,0.66
2.836,0.45,0.28,-0.35,0.64
2.846,0.63,0.21,-0.24,0.70
2.856,0.73,0.26,-0.17,0.79
2.866,0.78,0.47,-0.27,0.96
2.876,0.74,0.66,-0.46,1.09
2.886,0.58,0.65,-0.51,1.01
2.896,0.32,0.42,-0.49,0.72
2.906,-0.09,0.10,-0.51,0.53
2.917,-0.46,-0.31,-0.60,0.82
2.926,-0.75,-0.73,-0.77,1.30
2.937,-1.05,-1.11,-0.78,1.71
2.947,-1.27,-1.27,-0.60,1.89
2.957,-1.36,-1.26,-0.30,1.88
2.967,-1.17,-1.11,-0.04,1.61
2.977,-0.84,-0.73,0.09,1.12
2.987,-0.54,-0.18,0.14,0.58
2.997,-0.24,0.41,0.10,0.48
3.007,0.02,0.94,0.18,0.96
3.017,0.14,1.36,0.39,1.42
3.027,0.09,1.56,0.46,1.63
3.037,0.02,1.54,0.39,1.59
3.047,-0.03,1.24,0.32,1.28
3.057,-0.16,0.84,0.32,0.91
3.067,-0.18,0.41,0.17,0.48
3.078,-0.25,0.01,0.07,0.26
3.088,-0.30,-0.43,0.06,0.53
3.098,-0.30,-0.80,0.08,0.86
3.108,-0.25,-1.07,-0.01,1.10
3.118,-0.10,-1.16,-0.02,1.16
3.128,-0.00,-1.07,0.06,1.07
3.138,0.15,-1.10,0.08,1.11
3.148,0.20,-1.13,0.07,1.15
3.158,0.08,-1.08,0.10,1.08
3.168,-0.15,-0.91,0.19,0.94
3.178,-0.39,-0.73,0.28,0.88
3.188,-0.58,-0.55,0.33,0.87
3.198,-0.61,-0.40,0.33,0.80
3.208,-0.53,-0.31,0.30,0.68
3.218,-0.40,-0.37,0.25,0.60
3.228,-0.31,-0.55,0.24,0.67
3.238,-0.32,-0.75,0.23,0.84
3.248,-0.33,-0.94,0.27,1.03
3.259,-0.32,-1.16,0.36,1.25
3.268,-0.21,-1.34,0.38,1.41
3.278,-0.04,-1.45,0.32,1.49
3.289,0.12,-1.43,0.31,1.47
3.299,0.16,-1.30,0.37,1.36
3.309,0.14,-1.02,0.41,1.11
3.319,0.02,-0.70,0.50,0.86
3.329,-0.12,-0.40,0.73,0.84
3.339,-0.12,-0.18,0.89,0.91
3.349,-0.01,-0.12,0.93,0.93
3.359,0.12,-0.23,0.86,0.90
3.369,0.27,-0.43,0.70,0.87
3.379,0.34,-0.64,0.60,0.94
3.389,0.36,-0.82,0.52,1.04
3.399,0.49,-0.98,0.46,1.19
3.409,0.71,-1.06,0.43,1.35
3.419,0.80,-1.08,0.46,1.42
3.430,0.66,-0.98,0.59,1.32
3.439,0.50,-0.80,0.76,1.21
3.450,0.40,-0.70,0.94,1.24
3.460,0.34,-0.67,1.11,1.34
3.470,0.37,-0.67,1.30,1.51
3.480,0.56,-0.71,1.29,1.57
3.490,0.94,-0.69,1.01,1.54
3.500,1.29,-0.62,0.66,1.58
3.510,1.48,-0.66,0.35,1.66
3.520,1.39,-0.76,0.19,1.59
3.530,1.05,-0.92,0.23,1.41
3.540,0.68,-1.04,0.64,1.40
3.550,0.31,-0.97,1.13,1.52
3.560,0.00,-0.76,1.42,1.61
3.570,-0.11,-0.60,1.46,1.58
3.580,-0.18,-0.58,1.29,1.43
3.590,-0.23,-0.81,1.02,1.32
3.600,-0.16,-1.23,0.81,1.48
3.610,-0.03,-1.77,0.71,1.90
3.621,0.04,-2.26,0.63,2.34
3.630,0.03,-2.63,0.47,2.67
3.641,-0.15,-2.80,0.40,2.83
3.651,-0.44,-2.77,0.51,2.85
3.661,-0.52,-2.40,0.66,2.55
3.671,-0.37,-1.95,0.75,2.12
3.681,-0.17,-1.54,1.00,1.85
3.691,0.01,-1.28,1.29,1.82
3.701,0.16,-1.31,1.39,1.91
3.711,0.36,-1.48,1.17,1.92
3.721,0.54,-1.67,0.95,2.00
3.731,0.73,-1.84,0.89,2.17
3.741,0.85,-2.01,1.08,2.43
3.751,0.97,-2.21,1.20,2.69
3.761,1.11,-2.41,1.24,2.92
3.771,1.29,-2.47,1.56,3.19
3.781,1.44,-2.38,1.92,3.38
3.791,1.54,-1.87,2.14,3.23
3.802,1.33,-0.35,1.36,1.93
3.812,0.93,2.34,0.46,2.56
3.822,0.12,4.78,-0.10,4.79
3.832,-1.66,5.67,-1.79,6.17
3.842,-2.96,6.91,-3.82,8.44
3.852,-3.74,8.71,-5.26,10.84
3.862,-4.40,9.40,-5.70,11.84
3.872,-4.33,8.58,-4.47,10.60
3.882,-2.74,6.21,-1.88,7.04
3.892,-0.26,4.11,-0.22,4.12
3.902,1.94,3.40,0.04,3.91
3.912,3.20,3.38,0.48,4.68
3.922,3.22,3.37,0.90,4.75
3.932,2.40,2.79,0.89,3.79
3.942,1.22,2.09,0.28,2.43
3.952,-0.16,1.54,-0.51,1.63
3.962,-1.45,0.87,-1.02,1.98
3.973,-2.55,0.23,-1.22,2.84
3.983,-3.17,-0.27,-1.16,3.39
3.993,-3.26,-0.67,-0.97,3.47
4.002,-2.86,-1.09,-0.65,3.13
4.013,-2.00,-1.44,-0.41,2.50
4.023,-0.81,-1.57,-0.37,1.80
4.033,0.32,-1.43,-0.34,1.50
4.043,1.31,-1.15,-0.46,1.80
4.053,2.14,-0.72,-0.67,2.35
4.063,2.52,-0.23,-0.90,2.68
4.073,2.56,0.10,-1.09,2.79
4.083,2.30,0.22,-1.28,2.64
4.093,1.67,-0.07,-1.34,2.14
4.103,0.88,-0.47,-1.23,1.58
4.113,0.28,-0.81,-0.90,1.24
4.124,-0.18,-1.18,-0.46,1.28
4.133,-0.38,-1.29,-0.03,1.35
4.144,-0.41,-1.10,0.18,1.19
4.153,-0.41,-0.93,0.21,1.04
4.164,-0.45,-0.89,0.17,1.01
4.174,-0.50,-0.77,0.15,0.93
4.184,-0.55,-0.52,0.10,0.76
4.194,-0.45,-0.21,-0.00,0.50
4.204,-0.40,-0.11,-0.21,0.46
4.214,-0.26,-0.23,-0.45,0.57
4.224,-0.05,-0.26,-0.60,0.66
4.234,0.08,-0.07,-0.80,0.81
4.244,0.28,0.27,-1.02,1.09
4.254,0.40,0.43,-1.00,1.16
4.264,0.27,0.14,-0.76,0.82
4.274,-0.05,-0.47,-0.44,0.65
4.284,-0.30,-1.04,-0.06,1.08
4.294,-0.26,-1.32,0.22,1.37
4.304,0.01,-1.53,0.53,1.62
4.314,0.36,-1.74,0.93,2.01
4.325,0.60,-2.02,1.15,2.40
4.334,0.79,-2.15,1.02,2.50
4.345,0.91,-2.10,0.73,2.40
4.355,1.13,-1.95,0.41,2.29
4.365,1.44,-1.78,0.04,2.29
4.375,1.51,-1.68,-0.35,2.29
4.385,1.22,-1.64,-0.41,2.08
4.395,0.84,-1.47,-0.19,1.70
4.405,0.51,-1.11,-0.00,1.23
4.415,0.35,-0.79,0.08,0.86
4.425,0.37,-0.55,0.07,0.67
4.435,0.54,-0.51,0.24,0.78
4.445,0.71,-0.67,0.50,1.10
4.455,0.73,-1.02,0.52,1.36
4.465,0.77,-1.42,0.44,1.68
4.475,0.96,-1.58,0.48,1.91
4.485,1.11,-1.38,0.73,1.91
4.495,1.04,-1.18,0.91,1.82
4.506,0.95,-1.12,0.95,1.75
4.515,0.98,-0.85,0.89,1.57
4.526,1.06,-0.57,0.78,1.43
4.536,1.02,-0.45,0.48,1.22
4.546,0.89,-0.38,0.11,0.97
4.556,0.98,-0.30,0.04,1.03
4.566,1.20,-0.38,0.28,1.29
4.576,1.61,-0.74,0.60,1.87
4.586,2.15,-1.12,0.69,2.52
4.596,2.49,-1.33,0.58,2.88
4.606,2.63,-1.30,0.41,2.96
4.616,2.49,-1.32,0.19,2.83
4.626,2.02,-1.61,-0.26,2.60
4.636,1.37,-1.79,-0.76,2.38
4.646,1.04,-1.70,-0.82,2.16
4.656,0.82,-1.30,0.03,1.54
4.666,0.55,-0.18,0.46,0.74
4.676,-0.13,1.72,0.21,1.74
4.687,-1.17,3.58,-0.02,3.77
4.697,-1.95,4.84,0.03,5.22
4.707,-2.28,5.79,-0.22,6.23
4.717,-2.49,6.81,-1.29,7.37
4.727,-2.66,7.27,-2.29,8.07
4.737,-2.89,6.95,-2.66,7.98
4.747,-3.27,6.00,-2.27,7.20
4.757,-3.24,4.77,-1.49,5.96
4.767,-2.75,3.59,-0.97,4.62
4.777,-2.20,2.75,-0.89,3.64
4.787,-1.50,2.36,-0.76,2.90
4.797,-0.57,2.18,-0.41,2.29
4.807,0.30,1.97,0.11,1.99
4.817,0.62,1.46,0.59,1.70
4.827,0.36,0.82,0.74,1.16
4.837,-0.11,0.24,0.80,0.85
4.847,-0.31,0.12,0.83,0.90
4.858,-0.28,0.36,0.74,0.87
4.868,-0.25,0.66,0.55,0.89
4.878,-0.37,0.71,0.21,0.83
4.888,-0.69,0.43,-0.14,0.82
4.898,-0.97,-0.02,-0.37,1.04
4.908,-1.09,-0.46,-0.37,1.24
4.918,-1.04,-0.77,-0.33,1.33
4.928,-0.88,-0.98,-0.33,1.36
4.938,-0.73,-1.14,-0.32,1.39
4.948,-0.65,-1.13,-0.36,1.36
4.958,-0.58,-1.13,-0.18,1.28
4.968,-0.65,-1.32,-0.10,1.48
4.978,-0.76,-1.52,-0.06,1.70
4.988,-0.79,-1.75,0.00,1.92
4.998,-0.82,-1.99,0.13,2.15
5.009,-0.76,-2.21,0.21,2.35
5.018,-0.68,-2.38,0.26,2.49
5.029,-0.66,-2.46,0.17,2.55
5.039,-0.60,-2.52,0.05,2.59
5.049,-0.49,-2.56,0.10,2.61
5.059,-0.45,-2.65,0.21,2.70
5.069,-0.50,-2.78,0.31,2.84
5.079,-0.48,-2.82,0.20,2.87
5.089,-0.28,-2.76,0.02,2.77
5.099,0.06,-2.75,0.01,2.75
5.109,0.34,-2.86,0.08,2.88
5.119,0.51,-2.95,0.01,3.00
5.129,0.47,-2.97,0.02,3.01
5.139,0.26,-2.95,0.11,2.96
5.149,-0.02,-2.79,0.20,2.79
5.159,-0.18,-2.61,0.22,2.63
5.169,-0.06,-2.59,0.20,2.60
5.179,0.29,-2.77,0.11,2.79
5.189,0.59,-3.10,-0.09,3.16
5.199,0.69,-3.45,-0.29,3.53
5.210,0.69,-3.71,-0.24,3.78
5.219,0.47,-3.76,0.16,3.79
5.230,-0.05,-3.49,0.63,3.55
5.240,-0.49,-3.00,0.77,3.13
5.250,-0.65,-2.51,0.71,2.69
5.260,-0.66,-2.11,0.61,2.29
5.270,-0.58,-1.72,0.74,1.96
5.280,-0.35,-1.43,0.98,1.77
5.290,0.03,-1.29,1.27,1.81
5.300,0.30,-1.20,1.53,1.97
5.310,0.28,-0.82,1.73,1.94
5.320,-0.23,0.36,-0.02,0.43
5.330,-0.21,2.24,-1.08,2.49
5.340,-0.24,4.17,-0.04,4.17
5.350,-1.94,4.31,-0.69,4.78
5.360,-2.59,4.78,-1.82,5.73
5.370,-2.28,6.61,-2.58,7.46
5.380,-2.57,8.11,-2.53,8.88
5.391,-2.64,7.91,-1.69,8.51
5.400,-1.36,6.43,0.25,6.57
5.411,1.17,6.11,1.72,6.46
5.421,2.79,6.73,1.84,7.51
5.431,3.22,7.28,1.43,8.08
5.441,2.96,6.80,0.74,7.45
5.451,2.70,5.60,0.42,6.23
5.461,1.95,4.58,0.21,4.98
5.471,0.72,3.78,-0.00,3.85
5.481,-0.34,2.86,0.08,2.88
5.491,-1.12,2.06,0.26,2.36
5.501,-1.75,1.61,0.29,2.39
5.511,-1.82,1.37,0.24,2.29
5.521,-1.57,1.17,0.15,1.96
5.531,-1.21,0.98,-0.06,1.56
5.541,-0.80,0.74,-0.27,1.13
5.551,-0.42,0.50,-0.43,0.78
5.561,-0.13,0.23,-0.66,0.71
5.572,0.04,-0.11,-0.87,0.87
5.582,0.15,-0.50,-1.03,1.16
5.592,0.24,-0.86,-1.11,1.42
5.602,0.34,-1.11,-1.10,1.60
5.612,0.38,-1.35,-1.05,1.75
5.622,0.39,-1.64,-1.03,1.98
5.632,0.42,-1.87,-1.01,2.16
5.642,0.49,-2.08,-0.90,2.31
5.652,0.60,-2.22,-0.73,2.41
5.662,0.67,-2.27,-0.56,2.43
5.672,0.79,-2.23,-0.52,2.42
5.682,0.94,-2.14,-0.57,2.40
5.692,1.07,-2.04,-0.54,2.37
5.702,1.13,-1.87,-0.51,2.24
5.712,1.09,-1.54,-0.52,1.96
5.722,0.99,-1.18,-0.59,1.65
5.732,0.82,-0.96,-0.65,1.42
5.743,0.57,-0.98,-0.71,1.34
5.752,0.24,-1.19,-0.80,1.46
5.763,-0.18,-1.49,-0.88,1.74
5.773,-0.47,-1.82,-0.98,2.11
5.783,-0.54,-2.16,-1.13,2.50
5.793,-0.55,-2.43,-1.19,2.76
5.803,-0.52,-2.67,-1.02,2.91
5.813,-0.34,-2.83,-0.64,2.92
5.823,-0.07,-2.73,-0.17,2.74
5.833,0.38,-2.26,0.15,2.30
5.843,0.92,-1.46,0.16,1.73
5.853,1.32,-0.86,0.08,1.58
5.863,1.50,-0.76,0.02,1.68
5.873,1.56,-1.19,0.05,1.96
5.883,1.44,-2.07,0.17,2.53
5.893,1.25,-2.63,0.33,2.93
5.903,1.25,-2.67,0.27,2.96
5.913,1.27,-2.43,0.21,2.75
5.923,1.13,-1.93,0.21,2.24
5.934,0.93,-1.17,0.22,1.51
5.944,0.80,-0.26,0.21,0.87
5.954,0.79,0.83,-0.18,1.16
5.964,0.55,1.13,-0.38,1.31
5.974,0.33,0.34,0.23,0.52
5.984,0.61,-0.52,0.95,1.24
5.994,1.20,-1.37,1.32,2.25
6.004,1.79,-2.13,1.28,3.06
6.014,2.09,-2.43,1.19,3.42
6.024,2.18,-2.48,1.10,3.48
6.034,1.84,-2.32,0.69,3.05
6.044,1.26,-2.12,0.18,2.47
6.054,0.63,-1.59,-0.06,1.72
6.064,0.15,-0.55,0.17,0.60
6.074,-0.11,0.30,0.43,0.54
6.084,-0.56,1.17,-0.23,1.32
6.095,-1.54,2.06,-0.91,2.73
6.105,-2.24,2.57,-0.79,3.50
6.115,-2.47,3.00,-0.09,3.89
6.125,-2.56,3.96,0.02,4.72
6.135,-2.54,5.55,-0.67,6.14
6.145,-2.39,7.15,-1.15,7.62
6.155,-2.38,8.08,-0.73,8.46
6.165,-2.19,8.21,0.25,8.51
6.175,-1.57,7.67,1.18,7.92
6.185,-0.49,6.70,1.01,6.79
6.195,0.67,5.56,-0.03,5.60
6.205,1.49,4.39,-0.63,4.68
6.215,1.75,3.19,-0.39,3.66
6.225,1.67,2.17,0.11,2.74
6.235,1.24,1.29,0.43,1.84
6.245,0.47,0.46,0.77,1.01
6.255,-0.28,-0.25,1.06,1.12
6.265,-0.61,-0.62,0.90,1.25
6.276,-0.63,-0.64,0.45,1.00
6.286,-0.52,-0.76,-0.09,0.92
6.296,-0.53,-1.01,-0.33,1.19
6.306,-0.60,-1.40,-0.08,1.53
6.316,-0.61,-1.77,0.30,1.90
6.326,-0.65,-1.99,0.45,2.14
6.336,-0.73,-2.09,0.42,2.26
6.346,-0.73,-2.12,0.25,2.26
6.356,-0.59,-1.99,-0.04,2.08
6.366,-0.35,-1.81,-0.18,1.85
6.376,-0.19,-1.64,-0.34,1.68
6.386,-0.07,-1.46,-0.46,1.53
6.396,-0.04,-1.38,-0.56,1.49
6.406,-0.22,-1.39,-0.66,1.55
6.416,-0.53,-1.47,-0.56,1.66
6.427,-0.84,-1.52,-0.30,1.76
6.437,-0.98,-1.51,-0.02,1.80
6.447,-1.02,-1.41,0.19,1.76
6.457,-0.90,-1.32,0.31,1.63
6.467,-0.62,-1.36,0.33,1.53
6.477,-0.32,-1.59,0.29,1.65
6.487,-0.06,-2.01,0.34,2.04
6.497,0.07,-2.38,0.48,2.43
6.507,0.08,-2.62,0.70,2.71
6.517,0.05,-2.58,0.87,2.72
6.527,0.08,-2.20,0.79,2.34
6.537,0.07,-1.52,0.68,1.67
6.547,-0.04,-0.72,0.76,1.04
6.557,-0.14,-0.03,0.79,0.80
6.567,-0.09,0.48,0.52,0.72
6.577,0.17,0.63,0.05,0.66
6.587,0.59,0.12,-0.40,0.72
6.597,0.89,-0.77,-0.56,1.31
6.607,0.99,-1.70,-0.44,2.01
6.618,0.99,-2.59,-0.18,2.78
6.628,0.94,-3.27,-0.04,3.40
6.638,0.73,-3.64,-0.29,3.72
6.648,0.28,-3.75,-0.57,3.81
6.658,-0.34,-3.74,-0.44,3.78
6.668,-0.81,-3.47,0.08,3.57
6.678,-0.99,-2.88,0.71,3.13
6.688,-0.91,-2.37,1.17,2.80
6.698,-0.59,-2.07,1.37,2.55
6.708,-0.06,-1.90,1.41,2.37
6.718,0.59,-1.79,1.34,2.31
6.728,1.20,-1.66,1.15,2.35
6.738,1.61,-1.66,1.06,2.54
6.748,1.66,-1.77,1.14,2.68
6.758,1.32,-1.95,1.24,2.66
6.768,0.74,-1.95,1.30,2.45
6.778,-0.13,-1.34,1.23,1.83
6.788,-1.10,-0.08,0.08,1.11
6.799,-1.37,1.56,-0.30,2.09
6.809,-1.39,3.40,0.35,3.69
6.819,-2.24,4.22,0.17,4.78
6.829,-2.65,4.78,-1.08,5.58
6.839,-1.65,5.65,-2.17,6.27
6.849,-0.18,6.22,-2.37,6.66
6.859,0.63,6.36,-1.86,6.66
6.869,1.01,6.61,-1.36,6.82
6.879,1.47,7.51,-1.18,7.74
6.889,1.45,7.96,-0.93,8.14
6.899,0.41,6.73,-0.57,6.77
6.909,-0.62,4.64,-0.07,4.68
6.919,-1.37,2.90,0.70,3.28
6.929,-1.83,1.79,1.73,3.09
6.939,-1.45,1.16,2.55,3.15
6.949,-0.75,0.79,2.60,2.82
6.959,-0.11,0.60,2.07,2.16
6.969,0.49,0.59,1.47,1.66
6.980,1.14,0.90,1.02,1.77
6.990,1.66,1.44,0.51,2.26
7.000,1.87,1.90,-0.07,2.66
7.010,1.61,1.92,-0.58,2.57
7.020,1.08,1.55,-1.00,2.13
7.030,0.46,1.03,-1.30,1.72
7.040,0.05,0.47,-1.40,1.47
7.050,-0.13,-0.07,-1.31,1.31
7.060,-0.19,-0.58,-1.14,1.30
7.070,-0.19,-1.11,-0.94,1.47
7.080,-0.11,-1.59,-0.74,1.76
7.090,0.07,-1.91,-0.57,1.99
7.100,0.33,-2.02,-0.42,2.09
7.110,0.62,-2.01,-0.34,2.13
7.120,0.82,-1.98,-0.33,2.17
7.130,0.94,-1.86,-0.42,2.12
7.140,1.05,-1.73,-0.62,2.12
7.150,1.06,-1.60,-0.86,2.11
7.161,0.97,-1.54,-1.07,2.11
7.171,0.87,-1.53,-1.17,2.11
7.181,0.74,-1.60,-1.17,2.12
7.191,0.60,-1.69,-1.06,2.08
7.201,0.42,-1.84,-0.97,2.13
7.211,0.23,-2.06,-0.96,2.28
7.221,0.09,-2.27,-1.07,2.51
7.231,0.01,-2.51,-1.05,2.72
7.241,-0.11,-2.71,-0.72,2.80
7.251,-0.18,-2.83,-0.21,2.84
7.261,-0.07,-2.68,0.24,2.69
7.271,0.29,-2.28,0.61,2.38
7.281,0.87,-1.72,0.93,2.14
7.291,1.45,-1.21,0.87,2.08
7.302,1.85,-1.00,0.43,2.14
7.312,2.05,-0.94,-0.23,2.27
7.321,1.77,-1.22,-0.87,2.32
7.331,1.25,-1.77,-1.14,2.45
7.342,0.94,-2.29,-0.76,2.59
7.352,0.70,-2.70,0.14,2.79
7.362,0.53,-3.06,0.92,3.24
7.372,0.64,-3.28,1.14,3.53
7.382,1.13,-2.97,0.97,3.33
7.392,1.75,-2.19,0.55,2.86
7.402,2.20,-1.54,0.03,2.68
7.412,2.30,-1.36,-0.50,2.72
7.422,1.97,-1.64,-0.91,2.72
7.432,1.45,-2.17,-1.05,2.82
7.442,0.83,-2.35,-0.96,2.67
7.452,-0.09,-2.21,-0.09,2.21
7.462,-1.17,-1.58,0.53,2.03
7.472,-1.83,-0.38,0.29,1.89
7.482,-2.78,1.16,-0.40,3.04
7.493,-3.61,2.98,-0.78,4.75
7.503,-3.62,4.97,-1.10,6.24
7.513,-3.69,6.90,-1.70,8.01
7.523,-4.02,8.74,-2.23,9.87
7.533,-4.02,10.41,-1.83,11.31
7.543,-3.77,10.77,-0.36,11.41
7.553,-2.88,9.65,1.49,10.18
7.563,-1.32,8.00,1.76,8.30
7.573,0.24,6.67,0.65,6.71
7.583,1.66,5.63,-0.31,5.88
7.593,2.77,4.52,-0.90,5.38
7.603,3.04,3.14,-0.72,4.43
7.613,2.42,1.80,-0.10,3.02
7.623,1.47,0.70,0.30,1.65
7.633,0.49,-0.12,0.47,0.69
7.643,-0.40,-0.74,0.69,1.09
7.653,-1.05,-1.05,0.77,1.67
7.663,-1.44,-1.13,0.66,1.95
7.674,-1.49,-1.22,0.52,1.99
7.684,-1.27,-1.35,0.48,1.92
7.694,-0.95,-1.52,0.46,1.85
7.704,-0.59,-1.66,0.32,1.79
7.714,-0.37,-1.87,0.11,1.91
7.724,-0.25,-2.18,-0.12,2.19
7.734,-0.21,-2.46,-0.43,2.51
7.744,-0.20,-2.65,-0.65,2.74
7.754,-0.22,-2.78,-0.76,2.89
7.764,-0.31,-2.75,-0.76,2.87
7.774,-0.44,-2.55,-0.60,2.65
7.784,-0.66,-2.26,-0.42,2.39
7.794,-0.99,-2.05,-0.39,2.31
7.804,-1.32,-1.92,-0.36,2.35
7.814,-1.43,-1.81,-0.30,2.32
7.824,-1.38,-1.65,-0.18,2.15
7.834,-1.27,-1.43,0.04,1.91
7.845,-1.06,-1.20,0.29,1.62
7.854,-0.75,-1.03,0.52,1.37
7.865,-0.42,-0.97,0.63,1.23
7.875,-0.09,-0.99,0.69,1.21
7.885,0.24,-1.21,0.72,1.43
7.895,0.67,-1.50,0.58,1.74
7.905,1.15,-1.92,0.34,2.26
7.915,1.50,-2.34,0.23,2.79
7.925,1.65,-2.71,0.16,3.17
7.935,1.53,-3.04,0.25,3.41
7.945,1.14,-3.16,0.58,3.40
7.955,0.69,-2.89,0.72,3.06
7.965,0.31,-2.41,0.68,2.53
7.975,0.01,-1.82,0.57,1.91
7.985,-0.17,-1.26,0.36,1.32
7.995,-0.30,-1.09,0.15,1.14
8.005,-0.37,-1.45,0.23,1.51
8.015,-0.39,-2.01,0.46,2.10
8.025,-0.46,-2.41,0.75,2.56
8.035,-0.56,-2.56,0.98,2.80
8.046,-0.52,-2.42,1.09,2.70
8.056,-0.29,-1.97,1.04,2.24
8.066,0.13,-1.59,0.79,1.78
8.076,0.43,-1.48,0.58,1.64
8.086,0.50,-1.59,0.49,1.74
8.096,0.48,-1.80,0.67,1.98
8.106,0.51,-1.91,0.93,2.19
8.116,0.49,-1.66,1.24,2.13
8.126,0.08,-0.75,0.40,0.85
8.136,0.04,0.44,-0.38,0.58
8.146,0.18,1.86,-0.13,1.88
8.156,-0.99,2.61,-0.29,2.81
8.166,-2.23,3.81,-1.42,4.64
8.176,-2.18,6.21,-2.51,7.04
8.186,-2.15,7.95,-2.49,8.60
8.196,-2.02,7.40,-1.58,7.83
8.206,-1.39,5.47,-0.17,5.65
8.216,0.28,5.11,0.73,5.17
8.227,2.54,6.49,1.16,7.07
8.237,3.24,7.31,1.12,8.08
8.247,2.43,6.35,0.82,6.85
8.257,1.68,4.36,0.71,4.72
8.267,1.34,2.71,0.94,3.17
8.277,0.89,2.01,1.33,2.57
8.287,0.41,2.05,1.50,2.57
8.297,-0.06,2.05,1.43,2.50
8.307,-0.49,1.95,1.06,2.28
8.317,-0.72,1.84,0.58,2.06
8.327,-0.70,1.60,0.04,1.74
8.337,-0.54,1.31,-0.38,1.47
8.347,-0.48,0.83,-0.68,1.18
8.357,-0.41,0.25,-0.83,0.96
8.367,-0.19,-0.14,-0.80,0.84
8.378,-0.11,-0.38,-0.83,0.92
8.388,-0.06,-0.59,-1.00,1.17
8.398,-0.01,-0.86,-1.26,1.53
8.408,0.06,-1.14,-1.49,1.88
8.418,0.14,-1.44,-1.48,2.07
8.428,0.24,-1.70,-1.32,2.16
8.438,0.39,-1.91,-1.10,2.24
8.448,0.57,-2.10,-0.85,2.34
8.458,0.65,-2.26,-0.61,2.43
8.468,0.71,-2.32,-0.44,2.47
8.478,0.85,-2.16,-0.47,2.37
8.488,0.88,-1.84,-0.68,2.15
8.498,0.88,-1.57,-0.84,1.98
8.508,0.82,-1.47,-0.93,1.92
8.518,0.69,-1.60,-0.98,2.00
8.528,0.48,-1.92,-0.98,2.20
8.538,0.20,-2.19,-0.88,2.36
8.549,-0.01,-2.41,-0.77,2.53
8.559,-0.16,-2.76,-0.72,2.86
8.569,-0.26,-3.13,-0.63,3.20
8.579,-0.17,-3.27,-0.50,3.31
8.589,0.23,-3.24,-0.32,3.27
8.599,0.72,-2.94,-0.08,3.03
8.609,1.14,-2.34,0.27,2.62
8.619,1.51,-1.77,0.60,2.40
8.629,1.85,-1.26,0.69,2.34
8.639,2.27,-0.68,0.46,2.41
8.649,2.53,-0.14,-0.17,2.54
8.659,2.43,0.01,-0.83,2.57
8.669,1.87,-0.34,-1.24,2.27
8.679,1.14,-1.06,-1.37,2.07
8.689,0.77,-1.62,-0.99,2.05
8.699,0.86,-1.97,-0.09,2.15
8.709,1.16,-2.06,0.84,2.51
8.719,1.46,-1.98,1.46,2.86
8.730,1.53,-1.95,1.61,2.96
8.740,1.69,-2.08,1.58,3.11
8.750,2.14,-2.23,1.24,3.33
8.760,2.45,-2.56,0.69,3.61
8.770,2.51,-2.83,0.07,3.78
8.780,2.06,-2.85,-0.82,3.61
8.790,0.85,-2.69,-1.29,3.11
8.800,-0.71,-2.06,-1.24,2.51
8.810,-2.07,-1.08,-1.28,2.66
8.820,-3.29,0.25,-1.17,3.50
8.830,-4.26,1.94,-0.80,4.75
8.840,-4.20,3.68,-0.38,5.60
8.850,-3.44,5.58,-0.62,6.59
8.860,-2.81,7.90,-1.16,8.46
8.870,-2.43,10.08,-1.57,10.49
8.881,-2.22,11.03,-1.28,11.33
8.890,-1.79,10.17,-0.27,10.33
8.901,-1.30,8.11,0.80,8.26
8.910,-0.89,6.30,1.52,6.54
8.921,-0.71,5.30,1.47,5.55
8.931,-0.46,4.74,0.83,4.84
8.941,-0.21,4.11,0.35,4.13
8.951,-0.15,3.08,0.42,3.11
8.961,-0.11,2.00,0.82,2.17
8.971,0.04,1.07,1.14,1.57
8.981,0.07,0.36,1.13,1.19
8.991,0.02,0.03,0.85,0.85
9.001,0.06,-0.15,0.49,0.52
9.011,0.14,-0.31,0.11,0.36
9.021,0.17,-0.57,-0.11,0.61
9.031,0.11,-0.95,-0.13,0.97
9.041,-0.01,-1.38,-0.10,1.38
9.051,-0.15,-1.83,-0.17,1.85
9.061,-0.41,-2.34,-0.27,2.39
9.071,-0.59,-2.89,-0.23,2.96
9.082,-0.56,-3.41,-0.19,3.46
9.092,-0.47,-3.74,-0.24,3.78
9.101,-0.34,-3.87,-0.38,3.90
9.112,-0.33,-3.77,-0.56,3.82
9.122,-0.55,-3.49,-0.75,3.61
9.132,-0.93,-3.13,-0.77,3.36
9.142,-1.30,-2.73,-0.62,3.08
9.152,-1.51,-2.38,-0.33,2.83
9.162,-1.52,-1.99,-0.12,2.51
9.172,-1.34,-1.64,-0.09,2.12
9.182,-1.00,-1.41,-0.03,1.73
9.192,-0.60,-1.37,0.09,1.50
9.202,-0.19,-1.50,0.08,1.52
9.212,0.23,-1.71,0.11,1.73
9.222,0.59,-1.84,0.33,1.96
9.233,0.81,-1.89,0.69,2.16
9.242,0.90,-1.82,1.12,2.32
9.252,0.90,-1.69,1.27,2.29
9.262,0.79,-1.49,1.03,1.97
9.273,0.73,-1.20,0.66,1.56
9.283,0.76,-1.05,0.34,1.33
9.293,0.76,-1.13,0.08,1.37
9.303,0.76,-1.46,-0.04,1.65
9.313,0.69,-1.87,0.01,1.99
9.323,0.43,-2.13,0.19,2.18
9.333,0.05,-2.17,0.56,2.24
9.343,-0.50,-1.87,1.10,2.23
9.353,-1.09,-1.33,1.42,2.23
9.363,-1.34,-0.72,1.17,1.92
9.373,-1.19,-0.27,0.59,1.36
9.383,-0.73,-0.16,0.31,0.81
9.393,-0.06,-0.35,0.43,0.56
9.403,0.43,-0.69,0.42,0.92
9.414,0.59,-1.36,0.27,1.50
9.423,0.55,-2.05,0.29,2.14
9.434,0.40,-2.40,0.59,2.50
9.444,0.33,-2.47,0.93,2.66
9.454,0.43,-2.18,0.99,2.43
9.464,0.39,-1.75,1.04,2.07
9.474,-0.06,-0.91,0.78,1.20
9.484,-0.41,0.27,-0.20,0.53
9.494,-0.14,1.49,-0.31,1.53
9.504,-0.46,1.89,-0.06,1.94
9.514,-1.80,1.40,-0.68,2.38
9.524,-2.67,1.74,-1.59,3.56
9.534,-2.91,2.68,-2.16,4.51
9.544,-2.77,3.19,-1.68,4.55
9.554,-2.09,2.89,-0.62,3.62
9.564,-1.14,2.79,0.45,3.05
9.574,0.60,4.34,0.76,4.45
9.584,2.79,7.41,0.45,7.93
9.594,3.59,10.16,-0.01,10.78
9.605,3.05,10.44,-0.39,10.88
9.615,2.16,7.98,-0.53,8.29
9.624,1.59,4.83,0.26,5.09
9.635,1.29,2.90,1.34,3.44
9.645,0.86,2.02,1.85,2.87
9.655,0.42,1.70,2.02,2.67
9.665,0.24,1.84,1.90,2.65
9.675,0.13,2.13,1.46,2.59
9.685,0.06,2.53,0.82,2.66
9.695,-0.04,2.89,0.22,2.90
9.705,-0.30,2.85,-0.28,2.88
9.715,-0.60,2.21,-0.65,2.38
9.725,-0.76,1.21,-0.77,1.62
9.735,-0.81,0.19,-0.72,1.10
9.745,-0.75,-0.75,-0.66,1.25
9.755,-0.57,-1.47,-0.68,1.72
9.765,-0.34,-1.96,-0.77,2.13
9.775,0.01,-2.34,-0.81,2.47
9.785,0.42,-2.60,-0.80,2.75
9.795,0.72,-2.72,-0.76,2.91
9.806,1.04,-2.97,-0.62,3.21
9.816,1.36,-3.25,-0.46,3.55
9.826,1.43,-3.37,-0.28,3.67
9.836,1.32,-3.43,-0.09,3.68
9.846,1.33,-3.40,0.08,3.65
9.856,1.41,-3.36,0.11,3.65
9.866,1.41,-3.36,-0.05,3.64
9.876,1.25,-3.25,-0.32,3.49
9.886,1.00,-3.12,-0.60,3.33
9.896,0.62,-3.10,-0.83,3.26
9.906,0.21,-3.10,-0.85,3.22
9.916,0.01,-2.95,-0.61,3.01
9.926,0.08,-2.73,-0.29,2.74
9.936,0.33,-2.32,-0.02,2.35
9.946,0.69,-1.93,0.25,2.06
9.956,0.98,-1.81,0.38,2.09
9.966,1.10,-1.95,0.48,2.29
9.977,1.15,-2.08,0.57,2.45
9.987,1.28,-1.91,0.52,2.36
9.997,1.65,-1.61,0.34,2.33
10.007,1.90,-1.55,0.38,2.48
10.017,2.01,-1.74,0.82,2.79
10.027,2.19,-1.78,1.34,3.12
10.037,2.55,-1.37,1.54,3.27
10.047,2.74,-0.63,1.42,3.15
10.057,2.54,0.15,1.20,2.82
10.067,2.14,0.61,1.05,2.46
10.077,1.67,0.43,1.05,2.02
10.087,1.29,-0.25,1.32,1.87
10.097,1.27,-0.74,1.68,2.23
10.107,1.50,-0.88,2.12,2.74
10.118,1.69,-0.72,2.43,3.05
10.127,1.69,-0.54,2.56,3.12
10.137,1.58,-0.46,2.52,3.01
10.147,1.50,-0.50,2.21,2.72
10.158,1.39,-0.62,1.63,2.23
10.168,1.16,-0.98,0.78,1.71
10.178,0.37,-1.20,-0.83,1.50
10.188,-0.05,-1.58,-1.57,2.23
10.198,0.44,-2.34,-0.29,2.40
10.208,0.05,-1.66,-1.31,2.11
10.218,-2.00,1.47,-3.14,4.00
10.228,-3.82,5.42,-2.92,7.25
10.238,-3.41,7.94,-1.79,8.82
10.248,-2.71,9.18,-2.29,9.84
10.258,-3.20,9.52,-2.75,10.41
10.268,-3.66,8.94,-1.91,9.84
10.278,-3.17,8.16,-0.63,8.77
10.288,-2.46,7.75,-0.52,8.15
10.299,-2.16,7.42,-1.37,7.85
10.308,-1.53,6.78,-1.77,7.18
10.318,-0.61,5.81,-1.34,6.00
10.329,-0.04,4.54,-0.82,4.61
10.339,0.42,3.25,-0.58,3.33
10.349,1.33,2.43,-0.43,2.80
10.359,1.15,1.16,-0.60,1.74
10.369,0.51,-0.23,-0.77,0.95
10.379,-0.08,-1.46,-0.71,1.62
10.389,-0.66,-2.53,-0.23,2.62
10.399,-0.94,-3.28,0.35,3.43
10.409,-0.85,-3.73,0.64,3.88
10.419,-0.44,-3.92,0.52,3.98
10.429,0.06,-3.95,0.14,3.96
10.439,0.43,-3.89,-0.21,3.92
10.449,0.64,-3.60,-0.38,3.68
10.459,0.77,-3.25,-0.48,3.37
10.469,0.95,-2.94,-0.77,3.19
10.479,0.88,-2.60,-1.03,2.93
10.489,0.46,-2.19,-1.11,2.49
10.500,-0.20,-1.80,-1.02,2.08
10.510,-0.88,-1.58,-0.80,1.98
10.520,-1.50,-1.40,-0.66,2.15
10.530,-2.09,-1.16,-0.35,2.41
10.540,-2.68,-0.92,0.14,2.84
10.550,-3.07,-0.76,0.65,3.23
10.560,-3.16,-0.63,1.19,3.44
10.570,-2.80,-0.46,1.26,3.10
10.580,-2.01,-0.34,1.05,2.30
10.590,-1.04,-0.39,0.89,1.42
10.600,-0.12,-0.50,0.90,1.03
10.610,0.60,-0.53,1.06,1.32
10.620,1.17,-0.42,1.34,1.83
10.630,1.76,-0.22,1.58,2.37
10.640,2.34,-0.08,1.52,2.79
10.650,2.72,0.08,1.10,2.94
10.660,2.70,0.08,0.74,2.80
10.671,2.26,0.06,0.57,2.33
10.681,1.67,0.14,0.49,1.75
10.691,0.95,0.23,0.87,1.30
10.701,0.35,0.26,1.24,1.31
10.711,-0.07,0.25,1.32,1.35
10.721,-0.40,0.16,1.35,1.41
10.733,-0.36,0.08,1.45,1.49
10.741,-0.02,0.24,1.34,1.36
10.751,0.39,0.57,1.10,1.30
10.761,0.81,0.80,1.10,1.58
10.771,1.28,0.75,1.37,2.02
10.781,1.76,0.39,1.69,2.47
10.791,2.18,-0.05,1.96,2.94
10.801,2.47,-0.33,2.21,3.33
10.811,2.60,-0.28,2.38,3.54
10.821,2.58,0.20,2.45,3.57
10.831,2.29,1.44,2.09,3.42
10.841,1.74,3.07,1.49,3.83
10.852,0.93,4.16,1.31,4.46
10.861,-0.16,4.41,1.25,4.59
10.872,-1.29,4.25,0.59,4.48
10.882,-2.51,3.77,-0.38,4.54
10.892,-3.10,3.31,-0.66,4.58
10.902,-2.81,3.19,-0.50,4.28
10.912,-2.59,2.53,-0.42,3.65
10.922,-2.42,1.14,-0.59,2.74
10.932,-1.49,-0.15,-0.88,1.73
10.942,-0.64,-1.32,-1.23,1.91
10.952,-0.12,-2.29,-1.56,2.77
10.962,0.21,-2.90,-1.74,3.39
10.972,0.32,-3.24,-1.75,3.70
10.982,0.13,-3.35,-1.67,3.74
10.992,-0.45,-2.96,-1.41,3.31
11.002,-1.03,-2.08,-1.12,2.58
11.012,-1.42,-1.12,-1.04,2.09
11.022,-1.66,-0.22,-1.11,2.01
11.032,-1.65,0.50,-1.29,2.15
11.043,-1.34,0.71,-1.46,2.10
11.053,-0.92,0.64,-1.50,1.87
11.063,-0.61,0.56,-1.33,1.57
11.073,-0.28,0.24,-0.97,1.04
11.083,-0.02,-0.16,-0.63,0.65
11.093,0.16,-0.41,-0.44,0.63
11.103,0.23,-0.63,-0.44,0.80
11.113,0.25,-0.78,-0.55,0.98
11.123,0.27,-0.92,-0.72,1.20
11.133,0.12,-0.98,-0.90,1.34
11.143,-0.00,-0.91,-1.05,1.39
11.154,-0.10,-0.83,-1.01,1.31
11.163,-0.20,-0.75,-0.77,1.09
11.173,-0.19,-0.55,-0.46,0.74
11.183,-0.17,-0.19,-0.28,0.37
11.193,-0.13,0.17,-0.17,0.27
11.204,-0.10,0.34,-0.18,0.39
11.213,-0.10,0.30,-0.18,0.37
11.224,-0.00,0.09,-0.04,0.10
11.234,0.11,-0.13,0.18,0.24
11.244,0.30,-0.30,0.38,0.57
11.254,0.55,-0.46,0.45,0.85
11.264,0.75,-0.61,0.41,1.05
11.274,0.92,-0.69,0.37,1.21
11.284,1.06,-0.71,0.40,1.33
11.294,1.14,-0.74,0.49,1.45
11.304,1.22,-0.82,0.51,1.55
11.314,1.30,-0.90,0.48,1.65
11.324,1.35,-0.90,0.36,1.66
11.334,1.32,-0.88,0.25,1.60
11.344,1.23,-0.80,0.31,1.50
11.354,1.19,-0.71,0.46,1.46
11.364,1.24,-0.70,0.63,1.56
11.375,1.34,-0.76,0.73,1.70
11.385,1.52,-0.81,0.73,1.87
11.395,1.74,-0.75,0.75,2.04
11.405,1.85,-0.58,0.75,2.07
11.415,1.83,-0.38,0.77,2.02
11.425,1.67,-0.21,0.85,1.89
11.435,1.37,-0.08,0.91,1.65
11.445,1.00,0.01,0.93,1.36
11.455,0.75,0.12,0.95,1.22
11.465,0.61,0.20,0.99,1.18
11.475,0.55,0.32,1.07,1.24
11.485,0.47,0.41,1.17,1.32
11.495,0.29,0.54,1.25,1.39
11.505,0.05,0.58,1.32,1.45
11.515,-0.22,0.39,1.46,1.53
11.525,-0.41,0.14,1.62,1.68
11.535,-0.58,0.12,1.67,1.77
11.545,-0.57,0.36,1.47,1.62
11.556,-0.40,1.01,1.25,1.65
11.566,-0.32,1.86,1.04,2.15
11.576,-0.39,2.68,0.59,2.77
11.586,-0.41,3.16,-0.19,3.19
11.596,-0.32,3.27,-1.32,3.54
11.606,-0.53,3.43,-2.65,4.36
11.616,-1.17,3.36,-3.82,5.23
11.626,-1.84,2.61,-4.32,5.37
11.636,-2.33,1.34,-3.95,4.78
11.646,-2.54,0.09,-3.32,4.18
11.656,-2.49,-0.91,-2.78,3.84
11.666,-2.28,-1.24,-2.13,3.36
11.676,-1.70,-0.76,-1.21,2.23
11.686,-0.57,-0.08,-0.43,0.71
11.696,0.52,0.44,-0.18,0.71
11.706,1.07,1.08,-0.68,1.66
11.716,1.03,1.85,-1.34,2.50
11.726,0.49,2.47,-1.41,2.89
11.737,-0.32,2.67,-1.10,2.90
11.747,-0.74,2.62,-0.79,2.84
11.757,-0.88,2.57,-0.77,2.82
11.767,-1.51,1.86,-0.86,2.54
11.777,-1.82,0.92,-0.81,2.20
11.787,-1.84,0.18,-0.72,1.99
11.797,-1.45,-0.35,-0.62,1.62
11.807,-0.91,-0.84,-0.61,1.38
11.817,-0.38,-1.38,-0.66,1.57
11.827,0.01,-1.88,-0.73,2.02
11.837,0.13,-2.17,-0.86,2.33
11.847,0.14,-2.43,-0.90,2.59
11.857,0.11,-2.53,-0.80,2.65
11.867,-0.12,-2.50,-0.56,2.56
11.877,-0.43,-2.33,-0.19,2.37
11.888,-0.72,-1.97,0.12,2.10
11.897,-0.88,-1.60,0.14,1.83
11.908,-0.95,-1.27,-0.04,1.59
11.918,-1.02,-1.01,-0.13,1.44
11.928,-1.02,-0.80,-0.11,1.30
11.938,-0.81,-0.63,-0.09,1.02
11.948,-0.53,-0.57,-0.16,0.80
11.958,-0.40,-0.61,-0.20,0.75
11.968,-0.38,-0.71,-0.32,0.86
11.978,-0.44,-0.93,-0.57,1.18
11.988,-0.54,-1.22,-0.65,1.48
11.998,-0.59,-1.56,-0.61,1.77
12.008,-0.55,-1.90,-0.54,2.04
12.018,-0.46,-2.23,-0.46,2.32
12.028,-0.34,-2.43,-0.32,2.48
12.038,-0.27,-2.43,-0.18,2.45
12.048,-0.34,-2.23,-0.04,2.26
12.058,-0.52,-1.96,0.08,2.03
12.069,-0.61,-1.71,0.08,1.82
12.078,-0.57,-1.55,-0.05,1.65
12.089,-0.42,-1.58,-0.20,1.65
12.099,-0.18,-1.62,-0.21,1.64
12.109,0.11,-1.73,-0.14,1.74
12.119,0.36,-2.17,-0.14,2.20
12.129,0.48,-2.65,-0.30,2.70
12.139,0.31,-2.94,-0.42,2.98
12.149,-0.04,-3.20,-0.51,3.25
12.159,-0.25,-3.29,-0.70,3.37
12.169,-0.29,-3.20,-0.77,3.31
12.179,-0.10,-3.07,-0.56,3.12
12.189,0.18,-2.87,-0.30,2.89
12.199,0.39,-2.58,0.02,2.61
12.209,0.61,-2.19,0.35,2.30
12.219,0.80,-1.81,0.63,2.08
12.229,0.87,-1.42,0.84,1.86
12.239,0.78,-1.13,0.88,1.64
12.250,0.55,-1.07,0.82,1.45
12.259,0.16,-1.08,0.66,1.28
12.270,-0.22,-1.16,0.51,1.29
12.280,-0.34,-1.33,0.69,1.54
12.290,-0.29,-1.50,0.91,1.78
12.300,-0.23,-1.68,0.95,1.94
12.310,-0.04,-1.89,1.18,2.23
12.320,0.01,-1.50,0.83,1.71
12.330,0.05,-0.40,-0.47,0.62
12.340,0.22,1.32,-0.68,1.50
12.350,-0.42,2.21,-0.31,2.27
12.360,-1.68,2.87,-1.45,3.63
12.370,-2.25,5.38,-3.07,6.59
12.380,-2.46,8.27,-4.23,9.61
12.390,-2.89,10.55,-4.35,11.77
12.400,-3.39,11.08,-3.65,12.15
12.410,-2.89,9.15,-2.38,9.88
12.420,-1.16,6.36,-0.97,6.53
12.430,0.44,4.34,0.30,4.38
12.440,1.11,2.65,1.50,3.24
12.451,1.10,1.58,2.53,3.18
12.461,0.77,1.39,2.95,3.35
12.471,0.62,1.74,2.71,3.28
12.481,0.61,2.31,2.02,3.13
12.491,0.32,2.84,1.20,3.10
12.501,-0.05,3.36,0.12,3.36
12.511,0.09,4.08,-0.61,4.13
12.521,0.40,4.50,-0.66,4.56
12.531,0.42,4.02,-0.55,4.08
12.541,0.50,3.03,-0.50,3.11
12.551,0.63,1.80,-0.45,1.96
12.561,0.91,0.67,-0.53,1.24
12.571,1.04,-0.20,-0.69,1.26
12.581,0.92,-0.84,-0.75,1.45
12.591,0.51,-1.27,-0.67,1.53
12.601,0.11,-1.72,-0.53,1.80
12.611,-0.15,-2.38,-0.37,2.42
12.622,-0.37,-2.94,-0.25,2.97
12.632,-0.52,-3.30,-0.21,3.34
12.642,-0.47,-3.69,-0.31,3.73
12.652,-0.32,-3.91,-0.47,3.95
12.662,0.03,-3.91,-0.57,3.95
12.672,0.44,-3.61,-0.57,3.68
12.682,0.78,-3.14,-0.54,3.28
12.692,0.89,-2.60,-0.53,2.80
12.702,0.83,-2.06,-0.55,2.28
12.712,0.82,-1.58,-0.64,1.89
12.722,0.78,-1.15,-0.75,1.58
12.732,0.64,-0.73,-0.78,1.25
12.742,0.48,-0.37,-0.82,1.02
12.752,0.42,0.00,-0.66,0.78
12.762,0.38,0.34,-0.37,0.63
12.773,0.33,0.48,-0.15,0.61
12.783,0.20,0.31,-0.18,0.41
12.792,-0.03,-0.28,-0.39,0.48
12.803,-0.20,-1.19,-0.45,1.29
12.813,-0.26,-2.25,-0.16,2.27
12.823,-0.11,-3.06,0.37,3.08
12.833,0.17,-3.42,0.71,3.50
12.843,0.62,-3.47,0.75,3.61
12.853,1.36,-3.08,0.75,3.45
12.863,2.08,-2.30,0.78,3.20
12.873,2.32,-1.59,0.73,2.90
12.883,1.98,-1.16,0.51,2.35
12.893,1.51,-0.96,0.19,1.80
12.903,0.98,-1.05,-0.10,1.44
12.913,0.45,-1.49,-0.16,1.57
12.923,0.09,-1.98,-0.16,1.99
12.933,0.11,-2.13,0.09,2.13
12.943,0.39,-1.73,0.28,1.79
12.954,0.55,-1.31,0.15,1.43
12.963,0.48,-1.12,-0.25,1.24
12.974,0.39,-1.22,-0.57,1.40
12.983,0.35,-1.48,-0.53,1.61
12.994,0.13,-1.75,-0.26,1.78
13.004,-0.08,-2.02,-0.04,2.02
13.014,-0.18,-2.39,0.16,2.40
13.024,-0.18,-2.52,0.42,2.57
13.034,-0.09,-2.46,0.73,2.57
13.044,-0.18,-2.27,0.92,2.46
13.054,-0.30,-1.43,0.82,1.67
13.064,-0.85,0.23,-0.38,0.96
13.074,-2.04,2.01,-1.90,3.43
13.084,-2.57,3.63,-2.65,5.18
13.094,-2.58,4.98,-2.56,6.16
13.104,-2.75,6.63,-2.10,7.48
13.114,-2.84,8.54,-1.66,9.15
13.124,-2.64,9.98,-1.26,10.40
13.135,-2.23,10.54,-0.59,10.79
13.145,-1.51,9.96,0.34,10.08
13.155,-0.64,8.39,1.09,8.48
13.165,-0.01,6.59,1.13,6.69
13.175,0.55,4.86,0.55,4.92
13.185,0.85,3.31,-0.04,3.42
13.195,0.91,2.02,-0.06,2.22
13.205,0.83,0.98,0.42,1.35
13.215,0.56,0.23,0.95,1.12
13.225,0.08,-0.18,1.08,1.10
13.235,-0.28,-0.36,0.77,0.90
13.245,-0.50,-0.48,0.29,0.75
13.255,-0.60,-0.64,-0.04,0.88
13.265,-0.59,-0.89,-0.08,1.07
13.277,-0.55,-1.17,0.12,1.30
13.285,-0.44,-1.39,0.31,1.49
13.295,-0.20,-1.65,0.21,1.68
13.306,-0.02,-1.93,-0.06,1.94
13.315,0.07,-2.26,-0.28,2.28
13.326,0.14,-2.57,-0.41,2.61
13.336,0.16,-2.81,-0.49,2.86
13.346,0.12,-3.00,-0.50,3.05
13.356,-0.04,-3.16,-0.50,3.20
13.366,-0.29,-3.30,-0.46,3.34
13.376,-0.63,-3.38,-0.36,3.46
13.386,-0.99,-3.35,-0.17,3.50
13.396,-1.23,-3.20,0.20,3.43
13.406,-1.33,-2.86,0.65,3.22
13.416,-1.21,-2.32,0.99,2.80
13.426,-0.80,-1.69,1.07,2.16
13.436,-0.16,-1.09,0.95,1.46
13.446,0.48,-0.67,0.73,1.10
13.456,1.03,-0.54,0.48,1.26
13.466,1.50,-0.69,0.33,1.68
13.476,1.80,-1.11,0.24,2.13
13.486,1.75,-1.53,0.05,2.32
13.496,1.27,-1.73,0.18,2.15
13.507,0.50,-1.80,0.54,1.94
13.517,-0.13,-1.48,0.77,1.68
13.527,-0.52,-0.96,0.80,1.35
13.537,-0.83,-0.65,0.57,1.20
13.547,-0.82,-0.90,0.17,1.23
13.557,-0.61,-1.47,0.03,1.59
13.567,-0.37,-2.19,0.14,2.22
13.577,-0.20,-2.72,0.35,2.75
13.587,-0.15,-2.92,0.42,2.95
13.597,-0.09,-2.87,0.44,2.90
13.607,-0.16,-2.69,0.40,2.72
13.617,-0.19,-2.70,0.28,2.72
13.627,-0.21,-2.76,0.12,2.77
13.637,-0.11,-2.59,0.16,2.60
13.647,0.12,-2.39,0.52,2.44
13.657,0.19,-2.25,1.07,2.50
13.667,0.23,-2.10,1.40,2.54
13.678,0.42,-2.05,1.31,2.46
13.688,1.00,-2.18,1.22,2.69
13.698,1.53,-2.37,1.42,3.16
13.708,1.19,-1.93,0.88,2.43
13.718,0.85,-0.66,-0.55,1.20
13.728,1.23,1.90,-0.70,2.37
13.738,-0.08,4.03,-0.79,4.11
13.748,-2.39,5.01,-2.15,5.95
13.758,-3.50,5.96,-3.14,7.59
13.768,-3.27,6.42,-3.27,7.91
13.778,-2.05,5.29,-2.22,6.09
13.788,-1.27,3.63,-0.20,3.85
13.798,0.06,4.86,0.65,4.91
13.808,2.58,8.67,0.50,9.06
13.818,3.13,10.36,0.60,10.84
13.828,1.16,7.87,0.17,7.96
13.838,0.51,4.77,-0.28,4.81
13.849,0.77,2.85,0.50,2.99
13.859,0.42,1.86,1.63,2.51
13.869,0.16,1.83,2.18,2.85
13.879,0.05,2.38,2.19,3.24
13.889,0.18,2.93,1.67,3.38
13.899,0.34,3.21,0.79,3.33
13.909,0.38,3.23,-0.04,3.25
13.919,0.28,3.02,-0.65,3.10
13.929,0.15,2.47,-0.82,2.60
13.939,-0.01,1.49,-0.80,1.69
13.949,-0.09,0.59,-0.70,0.92
13.959,-0.04,0.01,-0.62,0.62
13.969,0.01,-0.60,-0.59,0.84
13.979,0.13,-1.13,-0.64,1.30
13.989,0.16,-1.62,-0.75,1.79
13.999,0.18,-2.10,-0.88,2.28
14.009,0.43,-2.44,-0.93,2.64
14.020,0.72,-2.70,-0.90,2.94
14.030,0.95,-2.89,-0.86,3.17
14.040,1.10,-2.98,-0.77,3.27
14.050,1.13,-3.02,-0.68,3.30
14.060,1.23,-3.03,-0.61,3.32
14.070,1.18,-2.89,-0.66,3.19
14.080,1.07,-2.76,-0.80,3.06
14.090,0.96,-2.37,-0.99,2.74
14.100,0.61,-2.35,-1.31,2.75
14.110,0.18,-3.20,-1.50,3.54
14.120,-0.21,-3.79,-1.43,4.06
14.130,-0.37,-4.05,-1.13,4.22
14.140,-0.32,-4.36,-0.66,4.43
14.150,-0.21,-4.55,-0.31,4.56
14.160,0.04,-4.44,-0.16,4.44
14.170,0.40,-3.91,-0.14,3.93
14.180,0.86,-3.12,-0.06,3.24
14.190,1.46,-2.29,0.21,2.72
14.200,2.06,-1.22,0.69,2.49
14.211,2.54,0.34,0.88,2.71
14.221,2.70,1.83,0.42,3.29
14.231,2.18,2.43,-0.23,3.27
14.241,1.21,1.76,-0.35,2.16
14.251,0.89,0.58,0.52,1.18
14.261,1.20,-0.24,1.59,2.01
14.271,1.39,-0.90,1.87,2.50
14.281,1.51,-1.36,1.47,2.51
14.291,1.43,-1.77,0.91,2.45
14.301,1.22,-2.30,0.71,2.70
14.311,1.22,-2.80,0.63,3.12
14.321,1.39,-3.18,0.57,3.51
14.331,1.84,-3.38,0.58,3.89
14.341,1.84,-3.21,0.18,3.71
14.351,1.34,-2.84,-0.86,3.26
14.361,0.96,-2.32,-0.74,2.61
14.371,0.11,-1.18,-0.28,1.21
14.381,-1.11,0.46,-1.09,1.62
14.391,-2.72,2.21,-2.26,4.17
14.402,-4.27,3.80,-2.39,6.19
14.412,-5.17,5.06,-1.21,7.34
14.422,-5.77,6.90,-0.53,9.00
14.432,-6.20,9.34,-0.80,11.24
14.442,-5.42,11.17,-0.34,12.42
14.452,-3.77,11.32,0.69,11.95
14.462,-1.97,10.18,0.54,10.39
14.472,0.08,8.42,-0.67,8.45
14.482,1.89,6.79,-1.77,7.26
14.492,2.77,5.63,-1.82,6.53
14.502,2.91,4.56,-0.93,5.49
14.512,1.99,3.15,0.01,3.72
14.522,0.61,1.51,0.65,1.75
14.532,-0.40,0.22,0.89,1.00
14.542,-1.00,-0.54,0.94,1.48
14.552,-1.45,-1.01,0.88,1.97
14.563,-1.60,-1.32,0.79,2.22
14.573,-1.43,-1.54,0.66,2.20
14.583,-1.10,-1.74,0.61,2.15
14.593,-0.71,-1.91,0.49,2.10
14.603,-0.35,-2.10,0.30,2.15
14.613,-0.20,-2.30,0.03,2.31
14.623,-0.31,-2.57,-0.10,2.59
14.633,-0.36,-2.81,-0.15,2.83
14.643,-0.37,-2.98,-0.31,3.01
14.653,-0.37,-3.08,-0.53,3.14
14.663,-0.35,-3.14,-0.71,3.24
14.673,-0.41,-3.17,-0.88,3.31
14.683,-0.67,-3.00,-1.01,3.24
14.693,-1.06,-2.69,-1.05,3.08
14.703,-1.46,-2.36,-0.93,2.93
14.713,-1.83,-2.15,-0.69,2.91
14.723,-2.03,-2.13,-0.42,2.97
14.734,-2.02,-2.24,-0.11,3.01
14.744,-1.75,-2.40,0.22,2.98
14.754,-1.24,-2.48,0.50,2.82
14.764,-0.61,-2.47,0.76,2.66
14.774,0.09,-2.48,0.90,2.64
14.784,1.03,-2.37,0.53,2.64
14.794,1.76,-2.01,0.04,2.67
14.804,1.93,-1.95,-0.15,2.75
14.814,1.68,-2.18,0.11,2.76
14.824,1.20,-2.22,0.56,2.59
14.834,0.68,-2.06,0.82,2.32
14.844,0.38,-1.86,0.76,2.05
14.854,0.38,-1.69,0.32,1.76
14.864,0.52,-1.78,-0.24,1.87
14.874,0.64,-2.22,-0.47,2.35
14.884,0.67,-2.81,-0.32,2.91
14.894,0.62,-3.19,-0.12,3.25
14.905,0.35,-3.07,0.04,3.09
14.915,0.01,-2.82,0.14,2.83
14.925,-0.30,-2.62,0.33,2.66
14.935,-0.53,-2.55,0.53,2.66
14.945,-0.63,-2.64,0.62,2.78
14.955,-0.68,-2.74,0.66,2.90
14.965,-0.56,-2.76,0.61,2.88
14.975,-0.51,-2.61,0.39,2.69
14.985,-0.54,-2.46,0.59,2.59
14.995,-0.55,-2.20,1.61,2.78
15.005,-1.02,-1.00,1.65,2.18
15.015,-1.69,1.08,-0.14,2.01
15.025,-1.20,3.96,-0.50,4.17
15.035,-1.25,5.74,0.18,5.87
15.045,-2.69,5.40,-1.45,6.20
15.055,-2.73,5.68,-3.10,7.02
15.065,-1.92,6.64,-3.40,7.70
15.075,-0.89,7.09,-2.34,7.52
15.086,0.34,6.70,-0.53,6.73
15.095,1.90,7.50,0.56,7.76
15.106,3.20,9.05,0.60,9.62
15.116,3.35,9.05,0.62,9.67
15.126,2.37,6.86,0.95,7.32
15.136,1.54,4.45,1.50,4.94
15.146,0.63,2.93,2.15,3.68
15.156,-0.03,2.32,2.50,3.41
15.166,-0.31,2.50,2.22,3.36
15.176,-0.51,2.40,1.41,2.83
15.186,-0.57,1.95,0.60,2.12
15.196,-0.60,1.52,-0.01,1.63
15.206,-0.46,1.32,-0.40,1.45
15.216,-0.45,1.30,-0.71,1.55
15.226,-0.65,1.25,-0.93,1.69
15.236,-0.85,0.86,-0.99,1.56
15.247,-0.90,0.25,-0.80,1.23
15.256,-0.61,-0.24,-0.54,0.85
15.266,-0.24,-0.81,-0.49,0.97
15.277,0.17,-1.38,-0.66,1.54
15.287,0.46,-1.94,-0.92,2.20
15.297,0.77,-2.40,-1.12,2.76
15.307,1.13,-2.68,-1.20,3.14
15.317,1.35,-2.79,-1.11,3.29
15.327,1.45,-2.71,-1.01,3.23
15.337,1.39,-2.43,-0.94,2.95
15.347,1.08,-2.04,-0.90,2.48
15.357,0.68,-1.67,-0.84,1.99
15.367,0.38,-1.40,-0.85,1.68
15.377,0.25,-1.20,-0.81,1.47
15.387,0.22,-1.04,-0.78,1.31
15.397,0.26,-0.97,-0.87,1.33
15.407,0.29,-1.12,-0.87,1.45
15.417,0.32,-1.49,-0.65,1.66
15.427,0.39,-1.87,-0.39,1.95
15.437,0.47,-2.01,-0.21,2.08
15.448,0.60,-1.98,-0.05,2.07
15.458,0.84,-1.72,0.25,1.93
15.468,1.02,-1.34,0.62,1.79
15.478,1.23,-1.02,0.97,1.87
15.488,1.50,-0.53,1.20,2.00
15.498,1.63,0.09,1.13,1.99
15.508,1.78,0.44,0.91,2.05
15.518,1.78,0.21,0.72,1.93
15.528,1.77,-0.84,0.58,2.04
15.538,1.88,-1.95,0.40,2.74
15.548,2.00,-2.74,0.10,3.40
15.558,2.07,-3.22,-0.23,3.83
15.568,1.86,-3.10,-0.28,3.62
15.578,1.49,-2.69,0.07,3.07
15.588,1.02,-2.31,0.41,2.56
15.599,0.73,-2.07,0.48,2.25
15.609,0.60,-2.08,0.32,2.19
15.619,0.43,-2.26,0.01,2.30
15.629,0.35,-2.46,-0.21,2.49
15.639,0.34,-2.65,-0.25,2.69
15.649,0.34,-2.64,-0.06,2.66
15.659,0.52,-2.43,0.02,2.49
15.669,0.96,-2.31,-0.29,2.52
15.679,1.27,-2.20,-0.77,2.65
15.689,1.24,-1.98,-0.89,2.50
15.699,0.68,-1.84,-1.03,2.22
15.709,0.26,-1.72,-1.17,2.09
15.719,0.03,-1.17,-0.70,1.36
15.729,-0.53,-0.01,-0.54,0.75
15.739,-1.53,1.49,-1.11,2.41
15.749,-2.56,2.95,-1.45,4.17
15.759,-2.66,4.09,-0.80,4.95
15.769,-2.40,5.64,-0.50,6.15
15.780,-2.90,8.03,-0.63,8.56
15.790,-3.67,10.29,-0.37,10.93
15.800,-4.17,11.58,0.63,12.33
15.810,-3.77,11.09,2.01,11.88
15.820,-2.20,9.33,1.80,9.76
15.830,-0.37,7.67,-0.03,7.68
15.840,1.11,6.31,-1.26,6.53
15.850,1.99,4.90,-1.21,5.42
15.860,2.16,3.44,-0.47,4.10
15.870,1.66,2.01,0.43,2.65
15.880,0.98,0.85,1.03,1.65
15.890,0.37,-0.04,0.94,1.01
15.900,-0.19,-0.60,0.60,0.87
15.910,-0.77,-1.03,0.30,1.32
15.920,-1.31,-1.35,0.15,1.89
15.930,-1.53,-1.69,0.14,2.29
15.940,-1.46,-2.10,0.28,2.58
15.950,-1.23,-2.47,0.40,2.78
15.960,-0.94,-2.74,0.34,2.91
15.971,-0.74,-2.93,0.14,3.03
15.981,-0.54,-3.03,-0.13,3.08
15.991,-0.30,-3.04,-0.39,3.08
16.001,-0.04,-3.09,-0.62,3.15
16.011,0.19,-3.16,-0.78,3.26
16.021,0.30,-3.16,-0.86,3.29
16.031,0.21,-3.09,-0.75,3.19
16.041,-0.07,-2.85,-0.50,2.89
16.051,-0.44,-2.43,-0.30,2.49
16.061,-0.72,-1.97,-0.19,2.11
16.071,-0.85,-1.57,-0.18,1.80
16.081,-0.91,-1.32,-0.25,1.62
16.091,-0.97,-1.17,-0.20,1.54
16.101,-0.93,-1.08,0.15,1.44
16.111,-0.75,-0.98,0.63,1.38
16.121,-0.47,-0.88,0.81,1.28
16.131,-0.21,-0.91,0.73,1.19
16.141,0.10,-1.10,0.49,1.21
16.152,0.48,-1.38,0.23,1.49
16.161,0.79,-1.57,0.23,1.77
16.172,0.77,-1.63,0.28,1.82
16.182,0.80,-1.52,0.21,1.73
16.192,0.78,-1.30,0.27,1.54
16.202,0.51,-1.24,0.37,1.39
16.212,0.31,-1.33,0.25,1.39
16.222,0.21,-1.48,0.17,1.51
16.232,0.11,-1.71,0.35,1.75
16.242,0.01,-1.90,0.66,2.01
16.252,-0.14,-1.90,0.78,2.05
16.262,-0.28,-1.85,0.73,2.01
16.272,-0.39,-1.78,0.66,1.93
16.282,-0.31,-1.66,0.65,1.81
16.292,0.10,-1.52,0.61,1.64
16.302,0.41,-1.28,0.27,1.37
16.312,0.46,-1.29,-0.01,1.37
16.323,0.33,-1.72,0.20,1.76
16.333,0.40,-2.38,0.63,2.50
16.343,0.67,-3.02,0.93,3.23
16.353,0.91,-3.51,0.94,3.74
16.363,1.23,-3.97,0.86,4.25
16.373,1.66,-4.23,0.84,4.62
16.383,1.93,-4.14,0.77,4.63
16.393,1.58,-3.23,0.38,3.62
16.403,0.56,-1.59,-0.66,1.81
16.413,0.08,1.03,-0.60,1.20
16.423,-1.23,3.70,-0.09,3.90
16.433,-3.78,4.72,-1.22,6.17
16.443,-4.62,6.50,-1.94,8.21
16.453,-4.19,8.23,-2.08,9.47
16.463,-3.14,8.32,-1.96,9.11
16.473,-1.97,7.91,-1.65,8.32
16.483,-0.25,9.22,-1.47,9.34
16.494,1.38,10.69,-1.17,10.84
16.504,1.83,9.23,-0.66,9.43
16.514,1.64,6.09,0.14,6.31
16.524,1.62,3.55,1.30,4.11
16.534,1.44,1.97,2.60,3.56
16.544,1.01,1.50,3.42,3.87
16.554,0.66,1.95,3.75,4.28
16.564,0.52,2.46,3.56,4.36
16.574,0.22,2.19,2.69,3.47
16.584,-0.12,1.56,1.52,2.19
16.594,-0.29,1.21,0.40,1.31
16.604,-0.39,0.80,-0.57,1.05
16.614,-0.46,0.26,-1.17,1.28
16.624,-0.48,-0.28,-1.42,1.53
16.634,-0.23,-0.71,-1.55,1.72
16.644,-0.04,-0.93,-1.67,1.91
16.654,-0.10,-1.18,-1.72,2.08
16.664,-0.10,-1.41,-1.75,2.25
16.675,-0.11,-1.65,-1.61,2.31
16.685,-0.04,-2.05,-1.28,2.42
16.695,0.19,-2.40,-0.92,2.58
16.705,0.54,-2.65,-0.60,2.77
16.715,0.76,-2.77,-0.45,2.91
16.725,0.81,-2.79,-0.46,2.94
16.735,0.81,-2.65,-0.59,2.84
16.745,0.85,-2.29,-0.72,2.55
16.755,0.95,-1.92,-0.73,2.26
16.765,0.89,-1.77,-0.78,2.13
16.775,0.69,-1.74,-0.96,2.10
16.785,0.57,-1.46,-1.20,1.98
16.795,0.51,-0.92,-1.31,1.68
16.805,0.31,-0.36,-1.21,1.30
16.815,0.00,-0.05,-1.05,1.05
16.825,-0.35,-0.05,-0.84,0.91
16.835,-0.67,-0.45,-0.62,1.02
16.846,-0.89,-1.24,-0.16,1.53
16.855,-0.79,-2.10,0.53,2.30
16.865,-0.40,-2.86,1.14,3.10
16.876,0.24,-3.33,1.46,3.65
16.886,1.13,-3.29,1.46,3.77
16.896,2.09,-2.67,1.26,3.62
16.906,2.87,-1.85,1.09,3.58
16.916,3.34,-1.45,0.82,3.74
16.926,3.50,-1.43,0.49,3.82
16.936,3.35,-1.32,0.05,3.60
16.946,3.00,-0.88,-0.18,3.13
16.956,2.66,-0.23,0.09,2.67
16.966,2.23,0.30,0.61,2.33
16.976,1.78,0.46,0.90,2.05
16.986,1.35,0.36,0.84,1.63
16.996,0.81,-0.09,0.49,0.95
17.006,0.51,-0.86,0.35,1.06
17.016,0.48,-1.54,0.57,1.71
17.026,0.62,-2.23,0.86,2.47
17.037,1.03,-2.89,1.07,3.24
17.047,1.52,-3.23,0.94,3.69
17.057,1.94,-3.48,0.58,4.03
17.067,2.39,-3.35,0.20,4.12
17.077,2.18,-3.00,-0.49,3.74
17.087,1.28,-2.85,-1.47,3.45
17.097,0.60,-2.50,-1.73,3.10
17.107,-0.20,-1.94,-0.99,2.19
17.117,-1.19,-0.78,-0.77,1.62
17.127,-2.28,1.21,-1.40,2.94
17.137,-3.39,3.04,-1.52,4.80
17.147,-3.72,4.49,-0.57,5.85
17.157,-3.91,6.30,-0.14,7.42
17.167,-4.34,8.46,-0.36,9.51
17.178,-4.08,10.19,-0.50,10.98
17.188,-3.70,10.97,-0.23,11.58
17.198,-3.24,10.50,0.25,10.99
17.208,-1.82,8.89,0.36,9.08
17.218,-0.41,7.06,-0.37,7.08
17.228,0.66,5.53,-0.81,5.63
17.238,1.45,4.20,-0.69,4.49
17.248,1.64,2.91,-0.43,3.37
17.258,1.14,1.84,-0.09,2.16
17.268,0.28,0.93,0.30,1.01
17.278,-0.62,0.10,0.68,0.92
17.288,-1.22,-0.56,0.92,1.63
17.298,-1.47,-0.88,0.91,1.94
17.308,-1.52,-0.92,0.77,1.93
17.318,-1.41,-0.86,0.55,1.74
17.328,-1.15,-0.79,0.27,1.42
17.338,-0.89,-0.78,0.08,1.19
17.348,-0.70,-0.99,-0.00,1.21
17.358,-0.68,-1.26,-0.09,1.43
17.368,-0.65,-1.57,-0.18,1.70
17.379,-0.52,-1.94,-0.32,2.04
17.389,-0.38,-2.33,-0.49,2.41
17.399,-0.22,-2.57,-0.61,2.65
17.409,-0.05,-2.70,-0.69,2.79
17.419,0.08,-2.77,-0.77,2.88
17.429,0.01,-2.77,-0.76,2.87
17.439,-0.25,-2.73,-0.65,2.82
17.449,-0.62,-2.67,-0.44,2.78
17.459,-0.96,-2.65,-0.14,2.83
17.469,-1.13,-2.69,0.15,2.93
17.479,-1.10,-2.80,0.29,3.03
17.489,-0.85,-2.95,0.30,3.08
17.499,-0.49,-3.12,0.38,3.18
17.510,-0.05,-3.19,0.55,3.24
17.519,0.46,-3.16,0.64,3.26
17.529,0.92,-3.04,0.64,3.24
17.539,1.23,-2.81,0.68,3.15
17.549,1.44,-2.57,0.70,3.03
17.560,1.54,-2.47,0.58,2.97
17.570,1.47,-2.48,0.38,2.91
17.580,1.20,-2.53,0.37,2.82
17.590,0.76,-2.53,0.41,2.67
17.600,0.35,-2.36,0.47,2.43
17.610,-0.00,-2.13,0.43,2.17
17.620,-0.16,-1.92,0.32,1.95
17.630,-0.15,-1.83,0.18,1.84
17.640,-0.08,-1.99,0.18,2.00
17.650,0.10,-2.30,0.30,2.32
17.660,0.18,-2.62,0.27,2.64
17.670,0.02,-2.64,0.20,2.64
17.680,-0.34,-2.56,0.33,2.60
17.690,-0.56,-2.58,0.72,2.74
17.700,-0.59,-2.43,1.15,2.75
17.710,-0.55,-2.16,1.43,2.65
17.720,-0.29,-1.84,1.55,2.42
17.730,-0.05,-1.38,1.38,1.95
17.741,-0.09,-0.54,0.82,0.99
17.751,-0.23,0.70,-0.61,0.96
17.761,0.09,2.34,-1.24,2.65
17.771,0.21,3.45,-1.13,3.64
17.781,-0.64,3.01,-0.86,3.19
17.791,-1.58,3.11,-1.80,3.93
17.801,-1.83,5.26,-2.79,6.23
17.811,-1.11,8.33,-2.66,8.82
17.821,-0.66,10.01,-1.69,10.18
17.831,-0.80,9.16,0.39,9.20
17.841,0.19,7.16,1.54,7.33
17.851,1.36,5.54,1.70,5.95
17.861,1.31,4.35,1.96,4.94
17.871,0.78,3.66,2.20,4.34
17.881,0.30,3.47,2.42,4.24
17.891,0.20,3.64,2.41,4.37
17.901,0.34,3.94,1.81,4.35
17.911,0.34,4.05,1.01,4.19
17.922,0.35,3.85,0.40,3.88
17.932,0.41,3.44,0.09,3.46
17.942,0.44,2.79,0.08,2.83
17.952,0.36,2.17,0.18,2.21
17.962,0.20,1.68,0.18,1.70
17.972,-0.06,1.11,0.05,1.11
17.982,-0.33,0.51,-0.27,0.66
17.992,-0.50,0.03,-0.61,0.79
18.002,-0.58,-0.40,-0.81,1.07
18.012,-0.58,-0.84,-0.78,1.29
18.022,-0.55,-1.33,-0.60,1.56
18.032,-0.45,-1.89,-0.49,2.01
18.042,-0.28,-2.36,-0.48,2.43
18.052,-0.04,-2.63,-0.59,2.70
18.062,0.29,-2.69,-0.73,2.80
18.072,0.61,-2.59,-0.87,2.80
18.083,0.85,-2.47,-0.90,2.76
18.093,1.01,-2.33,-0.85,2.68
18.103,1.20,-2.21,-0.70,2.61
18.113,1.41,-2.10,-0.57,2.59
18.123,1.63,-1.94,-0.47,2.58
18.133,1.82,-1.74,-0.37,2.55
18.143,1.90,-1.62,-0.31,2.51
18.153,1.76,-1.62,-0.40,2.42
18.163,1.36,-1.81,-0.60,2.35
18.173,0.89,-2.23,-0.80,2.53
18.183,0.45,-2.70,-0.96,2.90
18.193,0.07,-2.98,-0.88,3.11
18.203,-0.25,-3.02,-0.67,3.10
18.213,-0.35,-2.73,-0.23,2.76
18.223,-0.08,-1.98,0.33,2.01
18.233,0.43,-1.03,0.66,1.30
18.243,0.84,-0.54,0.61,1.17
18.253,0.98,-0.65,0.42,1.25
18.264,0.99,-1.45,0.28,1.78
18.274,1.02,-2.48,0.28,2.69
18.284,1.28,-3.18,0.27,3.44
18.294,1.66,-3.49,0.25,3.88
18.304,2.02,-3.54,0.48,4.10
18.314,2.35,-3.30,1.11,4.20
18.324,2.58,-2.49,1.66,3.95
18.334,2.75,-1.24,1.60,3.41
18.344,2.70,-0.21,1.00,2.89
18.354,2.21,0.14,0.16,2.22
18.364,1.48,-0.29,-0.50,1.59
18.374,0.98,-0.86,-0.43,1.37
18.384,1.07,-0.83,0.28,1.38
18.394,1.38,-0.63,1.09,1.87
18.404,1.45,-0.43,1.82,2.37
18.414,1.28,-0.62,2.15,2.57
18.424,1.09,-1.09,1.91,2.46
18.434,0.97,-1.74,1.32,2.39
18.445,0.57,-2.24,0.03,2.31
18.455,0.07,-2.68,-1.47,3.06
18.465,0.16,-3.56,0.06,3.56
18.475,0.31,-2.90,1.44,3.25
18.485,-0.19,0.13,0.45,0.51
18.495,-1.57,3.44,0.03,3.78
18.505,-2.42,5.90,0.44,6.39
18.515,-2.47,7.93,-0.26,8.30
18.525,-2.95,9.68,-1.98,10.31
18.535,-3.42,10.56,-3.44,11.62
18.545,-3.69,10.47,-3.86,11.75
18.555,-3.60,9.61,-3.11,10.73
18.565,-3.18,8.35,-2.35,9.24
18.575,-2.66,6.80,-1.77,7.51
18.585,-2.31,5.21,-0.92,5.77
18.595,-1.77,3.95,-0.41,4.35
18.605,-1.29,2.92,-0.21,3.19
18.616,-0.83,2.01,-0.12,2.18
18.626,-0.40,1.22,-0.08,1.28
18.635,0.10,0.77,-0.04,0.78
18.646,0.76,0.59,0.02,0.96
18.656,0.74,0.08,0.08,0.75
18.666,0.35,-0.66,0.12,0.76
18.676,0.13,-1.31,0.15,1.32
18.686,0.04,-1.79,0.06,1.79
18.696,-0.10,-2.12,-0.07,2.13
18.706,-0.22,-2.29,-0.11,2.31
18.716,-0.24,-2.45,-0.15,2.47
18.726,-0.18,-2.63,-0.25,2.65
18.736,-0.06,-2.70,-0.43,2.74
18.746,0.04,-2.58,-0.55,2.64
18.756,0.13,-2.32,-0.55,2.39
18.766,0.11,-1.88,-0.60,1.98
18.776,-0.08,-1.38,-0.76,1.58
18.787,-0.47,-0.94,-0.83,1.34
18.797,-0.89,-0.64,-0.69,1.30
18.807,-1.29,-0.54,-0.41,1.46
18.817,-1.59,-0.52,-0.11,1.68
18.827,-1.71,-0.59,0.13,1.81
18.837,-1.64,-0.80,0.46,1.88
18.847,-1.36,-1.03,0.59,1.80
18.857,-0.93,-1.20,0.67,1.66
18.867,-0.42,-1.20,0.77,1.49
18.877,-0.01,-1.11,0.87,1.41
18.887,0.18,-0.94,0.89,1.30
18.897,0.26,-0.73,0.86,1.16
18.907,0.29,-0.56,0.88,1.09
18.917,0.35,-0.33,0.85,0.97
18.927,0.44,-0.09,0.88,0.99
18.937,0.62,-0.03,1.14,1.29
18.947,0.93,-0.12,1.30,1.60
18.957,1.09,-0.09,0.95,1.45
18.968,1.00,-0.24,0.58,1.18
18.978,1.07,-0.63,0.57,1.36
18.988,1.12,-0.95,0.73,1.64
18.998,1.04,-1.14,0.77,1.73
19.008,0.94,-1.09,0.68,1.59
19.018,0.86,-0.78,0.63,1.32
19.028,0.69,-0.36,0.68,1.04
19.038,0.50,-0.03,0.79,0.93
19.048,0.24,0.15,0.99,1.03
19.058,0.02,0.34,1.27,1.31
19.068,0.03,0.51,1.44,1.53
19.078,0.29,0.64,1.74,1.88
19.088,0.80,0.65,2.15,2.38
19.098,1.44,0.59,2.49,2.94
19.108,1.96,0.51,2.64,3.33
19.118,2.34,0.44,2.60,3.53
19.129,2.65,0.38,2.47,3.64
19.138,2.77,0.23,2.32,3.62
19.149,2.67,0.01,2.29,3.52
19.159,2.38,-0.23,2.39,3.38
19.169,2.07,-0.24,2.43,3.21
19.179,1.92,0.06,2.61,3.25
19.189,1.73,0.98,2.52,3.21
19.199,1.20,2.53,1.98,3.43
19.209,0.10,3.76,1.18,3.95
19.219,-1.70,4.21,0.39,4.55
19.229,-3.21,4.64,-0.34,5.66
19.239,-4.12,4.72,-1.20,6.38
19.249,-4.20,4.01,-1.19,5.93
19.259,-3.58,2.91,-1.08,4.74
19.269,-2.83,1.34,-1.10,3.32
19.279,-2.15,-0.52,-1.00,2.43
19.289,-1.14,-1.90,-1.02,2.44
19.299,0.03,-2.72,-1.05,2.92
19.309,0.84,-3.11,-1.23,3.45
19.319,1.37,-3.05,-1.61,3.72
19.330,1.60,-2.81,-1.94,3.77
19.340,1.05,-2.25,-1.94,3.15
19.350,-0.02,-1.22,-1.64,2.05
19.360,-0.89,-0.37,-1.31,1.63
19.370,-1.50,0.37,-1.11,1.90
19.380,-1.85,0.87,-1.07,2.30
19.390,-1.69,1.00,-1.08,2.24
19.400,-1.22,0.81,-1.17,1.88
19.410,-0.68,0.45,-1.15,1.41
19.420,-0.13,-0.12,-1.00,1.01
19.430,0.29,-0.55,-0.80,1.02
19.440,0.65,-0.85,-0.66,1.26
19.450,0.96,-1.11,-0.62,1.59
19.460,1.12,-1.39,-0.64,1.90
19.471,1.13,-1.48,-0.68,1.98
19.480,0.92,-1.46,-0.63,1.84
19.491,0.66,-1.20,-0.52,1.47
19.501,0.45,-0.78,-0.50,1.03
19.511,0.18,-0.44,-0.49,0.69
19.521,-0.07,-0.25,-0.46,0.53
19.531,-0.32,-0.08,-0.40,0.52
19.541,-0.52,0.05,-0.31,0.61
19.551,-0.63,0.14,-0.24,0.69
19.561,-0.60,0.21,-0.15,0.65
19.571,-0.48,0.23,-0.08,0.54
19.581,-0.29,0.17,-0.00,0.33
19.591,-0.09,-0.08,0.09,0.15
19.601,0.06,-0.39,0.31,0.50
19.611,0.22,-0.63,0.54,0.85
19.621,0.54,-0.78,0.66,1.16
19.631,0.97,-0.90,0.64,1.47
19.641,1.32,-1.02,0.58,1.77
19.651,1.56,-1.03,0.57,1.95
19.661,1.57,-0.87,0.53,1.87
19.671,1.45,-0.70,0.55,1.70
19.682,1.33,-0.61,0.62,1.59
19.692,1.27,-0.63,0.53,1.51
19.702,1.16,-0.64,0.34,1.37
19.712,1.04,-0.71,0.22,1.27
19.722,0.94,-0.77,0.23,1.23
19.732,0.87,-0.75,0.27,1.18
19.742,0.81,-0.67,0.27,1.08
19.752,0.78,-0.73,0.61,1.23
19.762,0.84,-0.62,1.08,1.50
19.772,1.07,-0.42,1.40,1.81
19.782,1.27,-0.27,1.45,1.95
19.792,1.33,-0.07,1.16,1.76
19.802,1.21,0.21,0.95,1.55
19.812,1.00,0.39,1.03,1.49
19.822,0.85,0.38,1.23,1.54
19.832,0.87,0.36,1.45,1.73
19.842,1.00,0.44,1.39,1.77
19.853,1.04,0.60,1.23,1.71
19.863,0.95,0.70,1.17,1.66
19.873,0.76,0.67,1.25,1.61
19.883,0.55,0.80,1.30,1.63
19.893,0.40,1.23,1.25,1.80
19.903,0.41,1.85,1.22,2.25
19.913,0.39,2.49,1.04,2.73
19.923,0.35,3.06,0.42,3.10
19.933,0.19,3.26,-0.76,3.35
19.943,-0.09,3.14,-2.17,3.81
19.953,-0.58,3.09,-2.99,4.34
19.963,-1.14,2.88,-3.26,4.50
19.973,-1.66,2.04,-3.20,4.14
19.983,-2.18,0.83,-3.08,3.86
19.993,-2.56,-0.03,-2.95,3.91
20.003,-2.54,-0.43,-2.57,3.64
20.013,-2.11,-0.22,-1.92,2.86
20.023,-1.18,0.15,-1.11,1.63
20.034,-0.34,0.44,-0.48,0.73
20.044,0.15,0.67,-0.47,0.83
20.054,0.24,1.02,-1.08,1.50
20.064,0.13,1.36,-1.66,2.15
20.074,-0.29,1.53,-1.72,2.32
20.084,-0.91,1.50,-1.43,2.26
20.094,-1.14,1.54,-1.06,2.19
20.104,-1.22,1.61,-0.84,2.18
20.114,-1.71,1.13,-0.67,2.15
20.124,-1.87,0.45,-0.58,2.01
20.134,-1.80,-0.14,-0.56,1.89
20.144,-1.53,-0.64,-0.63,1.77
20.154,-0.86,-1.06,-0.65,1.52
20.164,-0.28,-1.50,-0.71,1.69
20.174,0.08,-1.86,-0.66,1.98
20.184,0.26,-2.12,-0.58,2.22
20.194,0.37,-2.31,-0.50,2.39
20.204,0.37,-2.30,-0.48,2.38
20.215,0.14,-2.13,-0.35,2.16
20.225,-0.16,-1.89,-0.07,1.89
20.235,-0.37,-1.65,0.18,1.70
20.245,-0.46,-1.36,0.17,1.45
20.255,-0.48,-0.93,-0.02,1.05
20.265,-0.43,-0.60,-0.24,0.77
20.275,-0.33,-0.47,-0.35,0.67
20.285,-0.23,-0.44,-0.39,0.63
20.295,-0.19,-0.54,-0.33,0.66
20.305,-0.27,-0.72,-0.18,0.79
20.315,-0.48,-0.87,0.00,0.99
20.325,-0.72,-0.94,0.16,1.19
20.335,-0.88,-0.98,0.30,1.35
20.345,-0.85,-1.13,0.47,1.49
20.355,-0.66,-1.31,0.62,1.59
20.365,-0.32,-1.48,0.66,1.66
20.376,-0.02,-1.60,0.44,1.66
20.385,0.14,-1.71,0.14,1.72
20.396,0.11,-1.81,-0.16,1.82
20.406,-0.11,-1.87,-0.33,1.91
20.416,-0.52,-1.93,-0.32,2.02
20.426,-1.02,-1.95,-0.21,2.21
20.436,-1.22,-1.86,-0.02,2.23
20.446,-1.03,-1.79,0.19,2.08
20.456,-0.57,-1.82,0.05,1.91
20.466,-0.05,-1.78,-0.36,1.82
20.476,0.30,-1.94,-0.76,2.11
20.486,0.50,-2.30,-0.94,2.54
20.496,0.68,-2.52,-0.79,2.73
20.506,0.75,-2.72,-0.54,2.87
20.516,0.70,-2.98,-0.42,3.08
20.526,0.55,-3.13,-0.41,3.20
20.536,0.44,-3.14,-0.38,3.19
20.546,0.35,-3.10,-0.21,3.13
20.557,0.41,-3.04,0.20,3.08
20.567,0.59,-2.90,0.85,3.08
20.577,0.72,-2.62,1.48,3.09
20.587,0.81,-2.24,1.76,2.96
20.597,0.86,-1.76,1.75,2.63
20.607,0.74,-1.20,1.68,2.19
20.617,0.75,-0.56,1.70,1.95
20.627,1.08,-0.08,1.71,2.03
20.637,1.54,0.09,1.62,2.23
20.647,1.73,-0.10,1.20,2.11
20.657,1.59,-0.56,0.83,1.88
20.667,1.30,-1.06,0.67,1.81
20.677,1.01,-1.34,0.86,1.88
20.687,0.41,-0.96,0.94,1.41
20.697,-0.48,0.59,-0.12,0.77
20.707,-0.70,3.45,-1.19,3.71
20.717,-1.48,6.00,-1.40,6.33
20.727,-3.53,6.31,-2.13,7.54
20.737,-5.18,5.99,-2.97,8.46
20.748,-5.09,5.45,-3.20,8.12
20.758,-4.17,4.88,-2.96,7.07
20.768,-3.59,4.17,-1.76,5.78
20.778,-2.35,3.77,-0.15,4.45
20.788,-0.29,5.11,0.26,5.13
20.798,1.34,6.88,0.13,7.01
20.808,1.71,6.90,0.09,7.11
20.818,1.27,5.15,-0.17,5.31
20.828,1.13,3.49,-0.10,3.67
20.838,1.08,2.57,0.46,2.83
20.848,0.91,2.17,1.03,2.57
20.858,0.78,2.15,1.16,2.57
20.868,0.54,2.09,0.97,2.37
20.878,0.10,1.87,0.52,1.95
20.888,-0.40,1.62,-0.03,1.67
20.898,-0.71,1.26,-0.53,1.54
20.908,-0.89,0.88,-0.98,1.60
20.919,-0.88,0.59,-1.24,1.63
20.929,-0.77,0.26,-1.25,1.49
20.939,-0.68,-0.23,-1.16,1.36
20.949,-0.52,-0.77,-1.06,1.40
20.959,-0.28,-1.37,-0.96,1.70
20.969,-0.01,-1.87,-0.93,2.08
20.979,0.20,-2.18,-0.91,2.37
20.989,0.40,-2.43,-0.82,2.59
20.999,0.65,-2.52,-0.74,2.71
21.009,0.83,-2.52,-0.67,2.74
21.019,0.82,-2.47,-0.60,2.67
21.029,0.78,-2.32,-0.57,2.52
21.039,0.82,-2.01,-0.51,2.23
21.049,0.97,-1.59,-0.39,1.90
21.059,1.03,-1.17,-0.42,1.61
21.069,0.94,-0.88,-0.58,1.42
21.079,0.81,-0.72,-0.70,1.29
21.089,0.71,-0.51,-0.70,1.13
21.100,0.65,-0.37,-0.63,0.98
21.110,0.51,-0.46,-0.55,0.88
21.120,0.21,-0.91,-0.54,1.08
21.130,-0.14,-1.71,-0.60,1.82
21.140,-0.38,-2.48,-0.57,2.57
21.150,-0.50,-3.02,-0.41,3.08
21.160,-0.36,-3.31,-0.19,3.33
21.170,0.02,-3.15,0.19,3.15
21.180,0.53,-2.32,0.71,2.49
21.190,1.05,-1.10,0.97,1.80
21.200,1.26,-0.50,0.56,1.47
21.210,1.25,-0.54,-0.24,1.38
21.220,1.21,-0.86,-0.95,1.76
21.230,1.16,-1.83,-1.00,2.39
21.240,1.13,-2.99,-0.45,3.23
21.250,1.21,-3.64,0.23,3.85
21.261,1.10,-3.72,0.69,3.94
21.270,1.05,-3.04,1.02,3.37
21.281,1.37,-1.94,1.33,2.72
21.291,1.61,-0.95,1.22,2.23
21.301,1.53,-0.45,0.73,1.76
21.311,1.48,-0.53,0.07,1.58
21.321,1.37,-1.31,-0.35,1.93
21.331,1.12,-2.12,-0.37,2.43
21.341,0.86,-2.52,-0.09,2.66
21.351,0.62,-2.61,0.20,2.69
21.361,0.49,-2.47,0.36,2.54
21.371,0.43,-2.16,0.50,2.26
21.381,0.27,-1.71,0.47,1.80
21.391,-0.08,-1.20,-0.14,1.21
21.401,-0.12,-0.98,-0.32,1.04
21.411,-0.11,-0.09,0.13,0.19
21.421,-0.55,1.63,-0.23,1.74
21.432,-1.48,2.92,-0.81,3.37
21.441,-1.90,3.73,-0.66,4.24
21.452,-1.81,4.82,0.17,5.15
21.462,-2.55,6.55,-0.08,7.03
21.472,-3.55,8.41,-1.03,9.18
21.482,-3.81,9.72,-1.30,10.52
21.492,-3.67,10.08,-0.89,10.77
21.502,-2.85,9.31,-0.47,9.75
21.512,-1.27,8.04,-0.45,8.16
21.522,0.27,6.73,-0.62,6.77
21.532,1.45,5.38,-0.83,5.63
21.542,2.09,4.05,-0.97,4.66
21.552,1.88,2.81,-0.56,3.42
21.562,0.97,1.72,0.07,1.98
21.572,0.04,0.87,0.48,1.00
21.582,-0.52,0.22,0.64,0.85
21.592,-0.64,-0.30,0.56,0.90
21.602,-0.63,-0.76,0.33,1.04
21.612,-0.52,-1.30,-0.01,1.40
21.623,-0.41,-1.83,-0.23,1.89
21.633,-0.25,-2.30,-0.34,2.34
21.643,-0.07,-2.70,-0.40,2.74
21.653,0.14,-3.02,-0.53,3.07
21.663,0.23,-3.24,-0.68,3.32
21.673,0.17,-3.42,-0.73,3.50
21.683,0.03,-3.38,-0.60,3.43
21.693,-0.22,-3.19,-0.53,3.24
21.703,-0.58,-2.88,-0.67,3.01
21.713,-0.98,-2.50,-0.74,2.79
21.723,-1.42,-2.09,-0.60,2.60
21.733,-1.75,-1.68,-0.37,2.46
21.743,-1.93,-1.21,-0.09,2.28
21.753,-1.96,-0.73,0.22,2.11
21.763,-1.81,-0.41,0.45,1.91
21.773,-1.35,-0.32,0.48,1.47
21.783,-0.78,-0.49,0.37,0.99
21.793,-0.30,-0.84,0.34,0.96
21.804,0.11,-1.23,0.49,1.33
21.814,0.42,-1.50,0.84,1.77
21.824,0.66,-1.57,1.26,2.12
21.834,0.85,-1.46,1.15,2.05
21.844,0.98,-1.26,0.61,1.71
21.854,1.13,-1.13,0.19,1.61
21.864,1.29,-0.98,0.05,1.62
21.874,1.34,-0.81,0.12,1.57
21.884,1.20,-0.89,0.45,1.56
21.894,1.02,-1.26,0.59,1.72
21.904,0.76,-1.63,0.36,1.84
21.914,0.34,-2.04,-0.03,2.07
21.924,-0.07,-2.60,-0.14,2.60
21.934,-0.17,-3.06,-0.01,3.07
21.944,-0.19,-3.48,0.10,3.49
21.954,-0.22,-3.87,0.28,3.89
21.965,-0.05,-3.90,0.66,3.96
21.974,0.17,-3.53,0.87,3.64
21.985,0.41,-2.80,1.01,3.01
21.995,0.56,-1.92,1.14,2.30
22.005,0.66,-1.03,1.20,1.71
22.015,0.80,-0.44,1.04,1.38
22.025,0.85,-0.24,0.86,1.23
22.035,0.88,-0.35,0.93,1.33
22.045,0.97,-0.76,1.10,1.65
22.055,1.07,-1.35,1.03,2.01
22.065,1.31,-1.96,0.88,2.52
22.075,1.50,-2.56,0.77,3.06
22.085,1.41,-2.82,0.77,3.25
22.095,1.00,-2.16,-0.12,2.38
22.105,0.88,-0.71,-1.01,1.51
22.115,0.51,1.34,-0.59,1.55
22.125,-1.00,1.99,-0.17,2.24
22.135,-2.64,2.80,-0.96,3.97
22.146,-3.36,4.91,-1.82,6.22
22.156,-3.57,6.52,-1.87,7.67
22.166,-3.26,6.99,-1.41,7.84
22.176,-2.79,7.96,-0.92,8.49
22.186,-1.28,10.81,-1.24,10.95
22.196,-0.11,11.85,-1.00,11.90
22.206,-0.08,8.96,0.29,8.97
22.216,0.15,5.44,0.47,5.46
22.226,1.14,3.60,0.08,3.78
22.236,1.51,2.48,1.00,3.07
22.246,1.26,1.89,2.74,3.56
22.256,1.21,1.87,3.85,4.45
22.266,1.13,2.02,3.76,4.42
22.276,0.99,1.78,2.82,3.48
22.286,0.63,1.26,1.60,2.14
22.296,0.19,0.96,0.50,1.10
22.306,-0.12,0.82,-0.37,0.91
22.316,-0.43,0.57,-0.88,1.13
22.327,-0.59,0.24,-1.19,1.35
22.336,-0.57,-0.18,-1.47,1.59
22.347,-0.60,-0.54,-1.68,1.86
22.357,-0.57,-0.75,-1.72,1.96
22.367,-0.51,-0.97,-1.65,1.98
22.377,-0.44,-1.26,-1.55,2.05
22.387,-0.26,-1.71,-1.43,2.24
22.397,-0.02,-2.31,-1.33,2.66
22.407,0.13,-2.89,-1.06,3.08
22.417,0.23,-3.17,-0.74,3.26
22.427,0.41,-3.32,-0.59,3.40
22.437,0.67,-3.35,-0.51,3.45
22.447,0.85,-3.14,-0.44,3.28
22.457,0.94,-2.76,-0.56,2.97
22.467,0.92,-2.54,-0.96,2.86
22.477,0.79,-2.57,-1.40,3.03
22.488,0.63,-2.53,-1.57,3.05
22.498,0.46,-2.41,-1.30,2.78
22.508,0.41,-2.32,-0.95,2.54
22.518,0.33,-2.17,-0.82,2.34
22.528,0.13,-2.25,-0.67,2.35
22.538,0.01,-2.53,-0.34,2.56
22.548,0.31,-2.80,-0.00,2.82
22.558,0.91,-2.80,-0.05,2.94
22.568,1.65,-2.62,-0.06,3.10
22.578,2.11,-2.16,-0.10,3.02
22.588,1.97,-1.52,-0.30,2.51
22.598,1.58,-1.20,-0.69,2.10
22.608,1.34,-1.45,-1.10,2.26
22.618,1.29,-2.01,-1.12,2.64
22.628,1.29,-2.55,-0.69,2.94
22.638,1.20,-2.97,-0.01,3.20
22.648,1.17,-3.06,0.66,3.34
22.658,1.28,-2.63,1.14,3.14
22.669,1.59,-1.80,1.19,2.68
22.678,1.88,-1.10,0.96,2.37
22.689,1.98,-0.67,0.53,2.16
22.699,1.96,-0.66,0.10,2.07
22.709,1.76,-0.93,-0.26,2.01
22.719,1.43,-1.42,-0.50,2.07
22.729,1.09,-1.74,-0.80,2.21
22.739,0.69,-1.85,-0.67,2.08
22.749,0.16,-1.44,0.17,1.46
22.759,-0.44,-0.12,0.27,0.53
22.769,-1.70,1.78,-0.55,2.52
22.779,-3.50,3.67,-1.45,5.28
22.789,-4.57,5.12,-1.55,7.03
22.799,-5.14,6.38,-1.31,8.30
22.809,-5.60,7.28,-1.15,9.26
22.819,-5.27,7.69,-0.60,9.35
22.829,-4.67,7.84,0.29,9.13
22.839,-3.66,7.51,0.93,8.40
22.849,-1.94,6.88,1.18,7.25
22.859,0.02,6.66,0.89,6.72
22.870,1.29,6.01,0.27,6.16
22.880,1.94,4.92,0.08,5.29
22.890,2.34,3.94,0.24,4.59
22.900,2.18,3.07,0.49,3.80
22.910,1.67,2.32,0.61,2.92
22.920,0.92,1.65,0.45,1.94
22.930,0.18,1.17,0.24,1.21
22.940,-0.50,0.90,0.06,1.04
22.950,-0.93,0.69,-0.05,1.16
22.960,-1.06,0.39,-0.10,1.13
22.970,-1.07,-0.05,-0.03,1.07
22.980,-1.08,-0.49,0.11,1.19
22.990,-0.99,-1.05,0.19,1.45
23.000,-0.78,-1.69,0.21,1.87
23.010,-0.49,-2.25,0.22,2.31
23.020,-0.13,-2.69,0.10,2.69
23.031,0.32,-3.16,-0.13,3.18
23.041,0.62,-3.49,-0.31,3.56
23.051,0.72,-3.55,-0.44,3.65
23.061,0.83,-3.41,-0.59,3.56
23.071,0.76,-3.16,-0.73,3.33
23.081,0.39,-2.91,-0.79,3.04
23.091,-0.12,-2.80,-0.72,2.90
23.101,-0.57,-2.81,-0.64,2.93
23.111,-0.89,-2.82,-0.51,3.00
23.121,-1.04,-2.78,-0.38,3.00
23.131,-1.09,-2.66,-0.22,2.88
23.141,-1.02,-2.42,-0.09,2.62
23.151,-0.79,-2.13,0.08,2.28
23.161,-0.50,-1.84,0.11,1.91
23.171,-0.26,-1.69,0.12,1.72
23.181,-0.09,-1.75,0.19,1.76
23.191,-0.03,-2.05,0.18,2.06
23.201,0.06,-2.28,0.23,2.29
23.212,0.14,-2.31,0.36,2.34
23.221,0.26,-2.18,0.37,2.22
23.232,0.34,-1.76,0.31,1.82
23.242,0.39,-1.26,0.19,1.33
23.252,0.43,-0.89,0.05,0.99
23.262,0.42,-0.76,-0.11,0.88
23.272,0.32,-0.91,-0.06,0.97
23.282,0.02,-1.20,0.32,1.25
23.292,-0.37,-1.42,0.87,1.71
23.302,-0.71,-1.45,1.36,2.11
23.312,-0.83,-1.35,1.70,2.32
23.322,-0.61,-1.17,1.57,2.05
23.332,-0.26,-1.12,0.86,1.43
23.342,0.09,-1.27,0.01,1.28
23.352,0.44,-1.68,-0.36,1.77
23.362,0.80,-2.25,-0.23,2.39
23.372,1.07,-2.82,0.07,3.02
23.382,1.25,-3.15,0.36,3.41
23.393,1.23,-3.41,0.81,3.71
23.403,1.15,-3.48,1.26,3.88
23.413,1.13,-2.79,1.33,3.29
23.423,0.85,-0.97,0.05,1.29
23.433,0.73,1.26,-0.96,1.74
23.443,0.13,3.27,-1.19,3.48
23.453,-1.70,3.96,-1.28,4.50
23.463,-2.93,5.19,-1.99,6.29
23.473,-3.22,7.14,-2.18,8.13
23.483,-2.84,7.55,-2.05,8.32
23.493,-2.41,6.01,-1.62,6.67
23.503,-1.88,5.24,-0.65,5.61
23.513,-0.27,6.63,-0.71,6.67
23.523,1.13,7.47,0.44,7.57
23.533,1.36,5.99,2.31,6.56
23.543,1.53,3.95,2.90,5.14
23.554,2.43,3.17,2.47,4.70
23.563,2.75,2.80,2.43,4.62
23.574,2.54,2.96,2.73,4.76
23.584,2.32,3.35,3.12,5.13
23.594,1.81,3.24,2.82,4.66
23.604,1.12,3.00,1.98,3.77
23.614,0.61,3.02,1.03,3.25
23.624,0.10,2.94,0.13,2.94
23.634,-0.49,2.41,-0.49,2.50
23.644,-0.90,1.80,-0.86,2.19
23.654,-1.05,1.13,-1.05,1.87
23.664,-0.99,0.53,-1.11,1.58
23.674,-0.90,-0.17,-1.12,1.45
23.684,-0.80,-0.86,-0.99,1.53
23.694,-0.70,-1.50,-0.72,1.80
23.704,-0.45,-2.19,-0.57,2.30
23.714,-0.08,-2.74,-0.62,2.81
23.724,0.32,-2.98,-0.81,3.10
23.735,0.62,-3.12,-0.99,3.33
23.745,0.90,-3.01,-1.14,3.34
23.755,1.08,-2.62,-1.32,3.12
23.765,1.08,-2.25,-1.36,2.84
23.775,0.89,-1.95,-1.28,2.50
23.785,0.62,-1.78,-1.09,2.17
23.795,0.38,-1.60,-0.96,1.91
23.805,0.17,-1.49,-0.93,1.76
23.815,0.02,-1.63,-0.84,1.84
23.825,-0.00,-1.87,-0.65,1.98
23.835,0.12,-1.78,-0.40,1.83
23.845,0.30,-1.56,-0.12,1.60
23.855,0.32,-1.53,-0.11,1.57
23.865,0.16,-1.93,-0.41,1.98
23.875,-0.00,-2.59,-0.70,2.68
23.885,0.13,-3.16,-0.69,3.24
23.895,0.42,-3.56,-0.38,3.60
23.905,0.71,-3.69,0.02,3.76
23.916,1.05,-3.56,0.36,3.73
23.926,1.44,-2.89,0.41,3.26
23.936,1.77,-1.76,0.24,2.50
23.946,2.03,-0.61,-0.02,2.12
23.956,1.98,0.04,0.02,1.98
23.966,1.54,0.17,0.18,1.56
23.976,1.17,-0.03,0.00,1.17
23.986,1.08,-0.34,-0.18,1.14
23.996,0.98,-0.76,-0.13,1.24
24.006,1.08,-1.29,0.04,1.69
24.016,1.36,-1.72,0.43,2.23
24.026,1.71,-2.11,0.81,2.83
24.036,2.03,-2.37,0.97,3.27
24.046,2.11,-2.32,1.06,3.31
24.056,2.10,-2.05,1.10,3.13
24.066,1.97,-1.83,1.01,2.87
24.076,1.83,-1.74,0.95,2.70
24.087,1.74,-1.76,0.64,2.55
24.097,1.22,-1.89,-0.27,2.27
24.107,0.60,-2.08,-0.95,2.36
24.117,-0.33,-1.73,-0.70,1.89
24.127,-1.42,-0.50,-0.94,1.77
24.137,-2.67,1.43,-1.52,3.38
24.147,-3.77,2.81,-1.62,4.98
24.157,-3.88,3.31,-0.72,5.15
24.167,-3.72,4.42,-0.23,5.78
24.177,-4.25,6.60,-0.36,7.86
24.187,-4.74,9.06,-0.08,10.22
24.197,-4.73,10.62,1.26,11.69
24.207,-3.94,11.12,2.38,12.03
24.217,-2.39,10.40,1.76,10.82
24.227,-0.69,8.80,-0.10,8.83
24.238,1.03,7.26,-1.26,7.44
24.247,2.13,5.91,-1.13,6.39
24.257,2.39,4.47,-0.40,5.08
24.268,1.95,2.81,0.19,3.42
24.278,1.30,1.34,0.43,1.91
24.288,0.72,0.40,0.31,0.88
24.298,-0.07,-0.25,0.10,0.28
24.308,-0.81,-0.75,0.03,1.10
24.318,-1.24,-1.26,0.09,1.77
24.328,-1.28,-1.97,0.18,2.36
24.338,-1.06,-2.56,0.25,2.78
24.348,-0.64,-2.99,0.40,3.08
24.358,-0.20,-3.45,0.52,3.49
24.368,0.04,-3.91,0.53,3.95
24.378,0.14,-4.36,0.53,4.39
24.388,0.26,-4.68,0.48,4.71
24.398,0.35,-4.77,0.30,4.80
24.408,0.42,-4.59,0.12,4.61
24.418,0.30,-4.10,-0.06,4.11
24.428,-0.04,-3.50,-0.33,3.52
24.439,-0.64,-3.05,-0.65,3.18
24.449,-1.23,-2.76,-0.87,3.14
24.459,-1.63,-2.44,-0.88,3.06
24.469,-1.86,-2.05,-0.76,2.87
24.479,-1.95,-1.67,-0.55,2.63
24.489,-1.87,-1.36,-0.29,2.33
24.499,-1.52,-1.17,-0.01,1.92
24.509,-1.06,-1.19,0.27,1.62
24.519,-0.62,-1.34,0.38,1.52
24.529,-0.10,-1.47,0.62,1.60
24.539,0.29,-1.53,1.02,1.86
24.549,0.39,-1.41,1.23,1.91
24.559,0.52,-1.37,1.19,1.89
24.569,0.84,-1.46,1.04,1.98
24.579,1.12,-1.54,0.69,2.03
24.589,1.16,-1.67,0.28,2.05
24.599,0.94,-1.96,0.20,2.18
24.609,0.49,-2.23,0.51,2.34
24.620,0.14,-2.46,0.89,2.62
24.630,0.04,-2.54,0.85,2.68
24.640,0.08,-2.49,0.51,2.55
24.650,0.05,-2.43,-0.04,2.43
24.660,-0.03,-2.62,-0.45,2.66
24.670,0.23,-3.11,-0.29,3.13
24.680,0.63,-3.67,0.02,3.73
24.690,0.84,-4.10,0.32,4.19
24.700,0.90,-4.20,0.39,4.31
24.710,0.93,-4.09,0.32,4.20
24.720,0.72,-3.92,0.81,4.06
24.730,0.56,-3.69,1.81,4.15
24.740,0.13,-2.85,2.29,3.66
24.750,-0.88,-0.80,0.76,1.41
24.760,-0.62,2.96,-0.13,3.03
24.770,-0.66,5.79,-0.37,5.84
24.781,-2.52,6.04,-1.48,6.71
24.791,-3.54,6.31,-2.88,7.79
24.801,-2.96,6.35,-2.84,7.57
24.810,-1.55,5.68,-1.63,6.11
24.821,-0.46,5.65,-0.44,5.69
24.831,0.96,8.54,-0.74,8.63
24.841,2.52,11.93,-1.20,12.26
24.851,2.10,10.10,0.10,10.32
24.861,1.40,5.79,1.24,6.09
24.871,1.57,3.06,1.56,3.78
24.881,1.45,1.52,2.38,3.17
24.891,1.32,1.33,3.05,3.58
24.901,1.64,2.41,3.12,4.27
24.911,1.71,3.84,2.69,4.99
24.921,1.51,4.45,1.62,4.97
24.931,1.17,4.39,0.41,4.56
24.941,0.66,4.01,-0.44,4.08
24.951,-0.10,3.44,-0.88,3.55
24.961,-0.75,2.62,-1.01,2.91
24.972,-1.07,1.74,-0.90,2.23
24.982,-1.05,0.96,-0.71,1.59
24.992,-0.86,0.32,-0.66,1.12
25.002,-0.76,-0.17,-0.71,1.06
25.012,-0.79,-0.56,-0.72,1.21
25.022,-0.75,-0.98,-0.64,1.39
25.032,-0.53,-1.42,-0.51,1.60
25.042,-0.30,-1.97,-0.38,2.03
25.052,-0.14,-2.56,-0.30,2.59
25.062,-0.04,-3.08,-0.34,3.10
25.072,0.00,-3.50,-0.47,3.53
25.082,-0.10,-3.75,-0.67,3.81
25.092,-0.07,-3.80,-0.85,3.90
25.102,0.12,-3.59,-1.09,3.75
25.112,0.29,-3.23,-1.35,3.51
25.122,0.36,-2.98,-1.50,3.36
25.132,0.27,-3.03,-1.54,3.41
25.142,0.08,-3.32,-1.42,3.61
25.153,-0.00,-3.60,-1.10,3.76
25.163,0.06,-3.77,-0.72,3.83
25.173,0.27,-3.79,-0.40,3.82
25.183,0.65,-3.56,-0.21,3.62
25.193,0.99,-3.21,-0.22,3.37
25.203,1.25,-2.89,-0.19,3.15
25.213,1.60,-2.65,-0.18,3.10
25.223,1.85,-2.66,-0.27,3.26
25.233,2.03,-3.12,-0.25,3.73
25.243,2.24,-3.74,-0.18,4.36
25.253,2.27,-3.97,-0.02,4.58
25.263,2.27,-3.52,0.12,4.19
25.273,2.32,-2.64,0.03,3.52
25.283,2.17,-1.68,-0.43,2.78
25.293,1.75,-0.98,-0.79,2.16
25.303,0.97,-0.90,-0.81,1.55
25.313,0.25,-1.51,-0.61,1.65
25.323,0.09,-2.44,-0.20,2.45
25.334,0.33,-3.50,0.37,3.53
25.344,0.78,-4.30,0.94,4.47
25.354,1.26,-4.58,1.43,4.96
25.364,1.63,-4.39,1.79,5.01
25.374,1.52,-3.57,2.01,4.37
25.384,1.16,-1.61,1.43,2.45
25.394,0.30,1.76,0.18,1.79
25.404,-1.37,5.89,-1.32,6.19
25.414,-2.55,9.44,-2.52,10.09
25.424,-4.35,11.08,-2.81,12.23
25.434,-6.29,10.98,-2.30,12.86
25.445,-6.67,10.60,-1.54,12.62
25.455,-5.64,10.38,-0.61,11.83
25.465,-4.01,9.87,0.31,10.65
25.474,-1.96,9.34,0.30,9.55
25.484,0.07,8.62,-0.10,8.63
25.494,1.77,7.29,-0.19,7.50
25.505,2.77,5.72,0.02,6.36
25.515,2.78,4.25,0.36,5.09
25.525,2.32,3.01,0.53,3.84
25.535,1.81,2.00,0.59,2.76
25.545,1.00,1.02,0.66,1.57
25.555,0.39,0.27,0.73,0.87
25.565,0.21,-0.16,0.63,0.68
25.575,0.19,-0.44,0.34,0.59
25.585,0.09,-0.74,-0.06,0.75
25.595,-0.15,-0.96,-0.43,1.06
25.605,-0.46,-1.22,-0.66,1.46
25.615,-0.62,-1.53,-0.70,1.80
25.625,-0.68,-1.99,-0.73,2.22
25.635,-0.67,-2.55,-0.70,2.73
25.645,-0.61,-3.21,-0.76,3.36
25.655,-0.50,-3.86,-0.90,4.00
25.665,-0.46,-4.36,-0.98,4.49
25.676,-0.51,-4.61,-0.91,4.72
25.686,-0.60,-4.48,-0.71,4.58
25.696,-0.75,-3.91,-0.43,4.01
25.706,-0.93,-3.05,-0.28,3.20
25.716,-1.04,-2.18,-0.28,2.43
25.726,-1.13,-1.41,-0.32,1.84
25.736,-1.37,-0.82,-0.28,1.62
25.746,-1.60,-0.37,-0.02,1.64
25.756,-1.67,0.13,0.31,1.71
25.766,-1.64,0.70,0.47,1.85
25.776,-1.55,1.19,0.44,2.00
25.786,-1.32,1.52,0.35,2.05
25.796,-0.97,1.53,0.32,1.84
25.806,-0.50,1.23,0.30,1.36
25.816,-0.03,0.71,0.29,0.77
25.826,0.28,-0.24,0.32,0.48
25.836,0.51,-1.37,0.32,1.50
25.846,0.54,-2.31,0.20,2.39
25.857,0.41,-3.22,0.21,3.25
25.866,0.45,-3.77,0.36,3.81
25.877,0.48,-3.74,0.55,3.82
25.887,0.43,-3.37,0.54,3.45
25.897,0.24,-2.85,0.43,2.90
25.907,-0.09,-2.51,0.26,2.52
25.917,-0.25,-2.42,0.12,2.43
25.927,-0.24,-2.54,0.12,2.55
25.937,-0.28,-2.56,0.21,2.58
25.947,-0.45,-2.53,0.29,2.59
25.957,-0.70,-2.42,0.42,2.56
25.967,-0.86,-2.10,0.49,2.32
25.977,-0.86,-1.54,0.61,1.86
25.987,-0.61,-0.86,0.66,1.24
25.997,-0.18,-0.45,0.50,0.70
26.007,0.34,-0.70,0.26,0.82
26.017,0.72,-1.44,-0.10,1.61
26.027,0.90,-2.30,-0.10,2.47
26.038,1.11,-3.06,0.14,3.25
26.048,1.20,-3.74,0.48,3.95
26.058,1.21,-4.30,1.02,4.58
26.068,1.34,-4.57,1.25,4.92
26.078,1.48,-4.46,1.14,4.84
26.088,1.39,-3.66,0.80,4.00
26.098,0.85,-2.15,-0.35,2.34
26.108,0.67,0.08,-1.02,1.22
26.118,-0.01,2.76,-1.24,3.02
26.128,-1.59,4.52,-1.47,5.01
26.138,-3.06,6.77,-1.83,7.65
26.148,-4.25,9.32,-1.72,10.39
26.158,-4.52,10.37,-1.68,11.44
26.169,-3.09,10.05,-1.60,10.64
26.178,-0.84,10.16,-1.30,10.27
26.188,1.32,9.47,-0.57,9.58
26.199,2.71,7.10,0.93,7.66
26.209,3.10,4.75,2.06,6.03
26.219,3.01,3.25,2.48,5.08
26.229,2.39,2.61,2.91,4.58
26.239,1.81,3.23,2.91,4.70
26.249,1.42,4.10,2.39,4.95
26.259,0.78,4.19,1.77,4.61
26.269,-0.17,3.49,1.06,3.66
26.279,-0.96,2.48,0.49,2.70
26.289,-1.27,1.60,0.04,2.05
26.299,-1.23,0.82,-0.46,1.55
26.309,-1.09,0.47,-0.93,1.51
26.319,-0.93,0.18,-1.37,1.66
26.329,-0.76,-0.27,-1.73,1.91
26.339,-0.45,-0.56,-1.83,1.97
26.349,-0.20,-0.66,-1.80,1.93
26.359,-0.21,-0.91,-1.78,2.01
26.369,-0.20,-1.41,-1.67,2.19
26.379,-0.10,-2.03,-1.43,2.49
26.390,-0.06,-2.65,-1.12,2.88
26.400,-0.01,-3.15,-0.79,3.25
26.410,0.16,-3.40,-0.51,3.45
26.420,0.42,-3.46,-0.28,3.50
26.430,0.80,-3.34,-0.14,3.44
26.440,1.07,-3.07,-0.07,3.25
26.450,1.26,-2.64,-0.10,2.93
26.460,1.38,-2.18,-0.19,2.59
26.470,1.36,-1.82,-0.29,2.29
26.480,1.20,-1.75,-0.39,2.16
26.490,0.86,-2.00,-0.47,2.23
26.500,0.44,-2.31,-0.43,2.39
26.510,0.24,-2.23,-0.22,2.25
26.521,0.28,-1.68,-0.10,1.71
26.530,0.39,-0.83,-0.09,0.92
26.540,0.46,-0.12,-0.17,0.50
26.551,0.40,0.16,-0.23,0.49
26.560,0.30,0.01,-0.25,0.39
26.571,0.31,-0.61,-0.30,0.74
26.581,0.46,-1.66,-0.33,1.75
26.591,0.67,-2.57,-0.11,2.65
26.601,0.89,-3.00,0.22,3.14
26.611,1.25,-3.00,0.59,3.30
26.621,1.92,-2.45,0.81,3.21
26.631,2.42,-1.58,0.82,3.01
26.641,2.59,-1.29,0.71,2.98
26.651,2.61,-1.71,0.44,3.15
26.661,2.52,-2.23,-0.03,3.36
26.671,2.20,-2.43,-0.28,3.29
26.681,1.79,-2.35,-0.22,2.96
26.691,1.63,-2.11,0.00,2.66
26.701,1.59,-1.78,0.36,2.41
26.711,1.23,-1.51,0.64,2.05
26.721,0.76,-1.56,0.85,1.93
26.732,0.62,-1.55,0.84,1.87
26.742,0.55,-1.34,0.59,1.56
26.752,0.54,-1.01,0.15,1.16
26.762,0.47,-0.86,-0.11,0.99
26.772,0.54,-1.19,-0.16,1.32
26.782,0.77,-1.75,-0.33,1.94
26.792,0.93,-2.27,-0.55,2.51
26.802,0.88,-2.69,-0.63,2.90
26.812,1.05,-2.86,-0.34,3.07
26.822,0.63,-2.13,-0.27,2.24
26.832,-0.52,-0.65,-1.40,1.63
26.842,-2.64,1.23,-2.48,3.83
26.852,-4.94,3.52,-1.94,6.37
26.862,-6.54,6.32,0.08,9.09
26.872,-7.42,10.52,2.54,13.13
26.883,-7.77,14.82,2.77,16.96
26.893,-7.32,15.42,0.28,17.07
26.903,-4.25,12.02,-1.71,12.86
26.913,-0.86,8.24,-1.83,8.49
26.923,1.47,5.96,-1.79,6.40
26.933,3.43,4.43,-1.74,5.87
26.943,4.30,3.34,-1.40,5.62
26.953,3.69,2.13,-0.81,4.33
26.963,2.37,0.90,-0.09,2.54
26.973,1.19,0.27,0.45,1.30
26.983,0.00,-0.10,0.86,0.87
26.993,-1.03,-0.27,1.35,1.72
27.003,-1.58,-0.20,1.61,2.26
27.013,-1.85,-0.23,1.52,2.41
27.023,-1.72,-0.55,1.17,2.15
27.033,-1.17,-0.87,0.81,1.66
27.043,-0.43,-1.04,0.47,1.22
27.053,0.35,-1.19,0.05,1.24
27.063,1.01,-1.38,-0.37,1.75
27.074,1.50,-1.70,-0.75,2.39
27.084,1.74,-2.18,-0.95,2.95
27.094,1.67,-2.67,-0.98,3.30
27.104,1.26,-2.96,-0.95,3.35
27.114,0.50,-2.84,-0.67,2.96
27.124,-0.13,-2.43,-0.27,2.45
27.134,-0.71,-1.89,-0.10,2.02
27.144,-1.28,-1.41,-0.07,1.91
27.154,-1.77,-1.10,-0.12,2.09
27.164,-2.09,-0.93,0.03,2.29
27.174,-2.24,-0.78,0.46,2.42
27.184,-2.16,-0.54,0.83,2.38
27.194,-1.84,-0.24,0.99,2.10
27.204,-1.54,0.00,0.94,1.80
27.214,-1.27,0.02,0.74,1.47
27.224,-0.85,-0.10,0.58,1.03
27.234,-0.46,-0.23,0.64,0.82
27.244,-0.12,-0.40,0.70,0.81
27.255,0.12,-0.50,0.63,0.81
27.265,0.21,-0.46,0.59,0.78
27.274,0.12,-0.41,0.50,0.65
27.285,-0.07,-0.41,0.39,0.57
27.295,-0.33,-0.42,0.27,0.60
27.305,-0.45,-0.50,0.09,0.68
27.315,-0.57,-0.72,-0.07,0.93
27.325,-0.70,-0.84,-0.02,1.10
27.335,-0.68,-0.72,-0.00,0.99
27.345,-0.64,-0.50,-0.04,0.82
27.355,-0.49,-0.10,0.11,0.52
27.365,-0.02,0.59,0.58,0.83
27.375,0.59,1.59,0.70,1.83
27.385,0.90,2.65,0.29,2.81
27.395,0.80,3.31,-0.33,3.42
27.405,0.53,3.21,-0.87,3.36
27.415,0.14,2.31,-1.10,2.57
27.425,-0.12,1.09,-0.87,1.40
27.435,-0.30,0.07,-0.14,0.33
27.445,-0.42,-0.67,0.65,1.02
27.456,-0.45,-1.29,1.07,1.73
27.466,-0.47,-1.63,1.13,2.04
27.476,-0.48,-1.51,0.92,1.83
27.486,-0.34,-1.21,0.60,1.40
27.496,-0.11,-0.83,0.34,0.90
27.506,0.10,-0.37,0.11,0.40
27.516,0.19,0.08,-0.03,0.21
27.526,0.11,0.42,-0.13,0.45
27.536,-0.09,0.53,-0.17,0.56
27.546,-0.26,0.35,-0.17,0.47
27.556,-0.25,0.18,-0.24,0.40
27.566,-0.16,0.06,-0.36,0.40
27.576,-0.12,0.00,-0.45,0.47
27.586,-0.12,0.03,-0.48,0.50
27.596,-0.11,0.03,-0.46,0.48
27.606,-0.01,-0.07,-0.43,0.44
27.617,0.10,-0.13,-0.48,0.51
27.626,0.14,-0.17,-0.54,0.58
27.637,0.14,-0.08,-0.55,0.57
27.647,0.11,0.11,-0.51,0.53
27.657,0.02,0.26,-0.40,0.48
27.667,-0.07,0.26,-0.35,0.44
27.677,-0.12,0.21,-0.36,0.43
27.687,-0.12,0.12,-0.32,0.36
27.697,-0.14,0.06,-0.34,0.37
27.707,-0.17,0.04,-0.40,0.43
27.717,-0.20,-0.00,-0.42,0.47
27.727,-0.19,-0.04,-0.48,0.52
27.737,-0.16,-0.07,-0.53,0.56
27.747,-0.14,-0.05,-0.60,0.61
27.757,-0.16,0.01,-0.59,0.61
27.767,-0.19,0.06,-0.55,0.59
27.778,-0.21,0.10,-0.61,0.65
27.787,-0.30,0.15,-0.63,0.72
27.798,-0.35,0.12,-0.54,0.65
27.808,-0.35,0.01,-0.44,0.56
27.818,-0.36,-0.22,-0.37,0.56
27.828,-0.33,-0.36,-0.32,0.59
27.838,-0.30,-0.37,-0.29,0.56
27.848,-0.18,-0.22,-0.27,0.39
27.858,-0.06,0.05,-0.24,0.26
27.868,0.00,0.17,-0.18,0.24
27.878,0.16,0.11,-0.26,0.32
27.888,0.16,0.22,-0.34,0.43
27.898,-0.12,-0.07,-0.16,0.22
27.908,-0.01,-0.09,-0.21,0.23
27.918,-0.10,-0.09,-0.26,0.29
27.928,-0.08,-0.09,-0.25,0.28
27.938,-0.06,-0.14,-0.29,0.33
