time,ax,ay,az,atotal
0.000,-0.07,0.07,-0.07,0.12
0.010,0.01,0.08,-0.08,0.12
0.020,0.04,0.06,-0.05,0.08
0.030,-0.05,-0.06,0.00,0.08
0.040,-0.07,-0.18,0.04,0.20
0.050,-0.06,-0.22,0.04,0.24
0.060,-0.05,-0.20,0.07,0.22
0.070,-0.00,-0.16,0.10,0.19
0.080,0.23,-0.06,0.16,0.28
0.091,1.14,0.55,0.26,1.29
0.101,0.82,0.46,-0.03,0.94
0.111,-0.29,-0.49,-0.03,0.56
0.121,0.19,-0.33,0.22,0.44
0.131,0.26,-0.11,0.24,0.37
0.141,0.27,0.08,0.10,0.30
0.151,0.19,0.13,-0.06,0.24
0.161,0.05,0.02,-0.13,0.14
0.171,-0.03,-0.10,-0.10,0.15
0.181,-0.01,-0.14,-0.01,0.14
0.191,0.02,-0.08,-0.03,0.09
0.201,0.08,0.06,-0.06,0.11
0.211,0.06,0.12,-0.10,0.17
0.221,-0.03,-0.01,-0.10,0.11
0.231,-0.08,-0.12,-0.06,0.16
0.241,-0.10,-0.07,-0.01,0.12
0.252,-0.12,-0.04,-0.01,0.13
0.261,-0.16,-0.04,-0.06,0.18
0.272,-0.09,0.05,-0.06,0.12
0.282,-0.05,-0.04,-0.06,0.09
0.292,-0.07,-0.11,-0.03,0.14
0.302,-0.03,-0.13,0.03,0.13
0.312,0.07,-0.12,0.09,0.16
0.322,0.13,-0.09,0.08,0.18
0.332,0.20,-0.04,0.05,0.21
0.342,0.24,0.01,-0.02,0.24
0.352,0.21,0.02,-0.08,0.23
0.362,0.21,0.01,-0.05,0.21
0.372,0.16,-0.00,-0.00,0.16
0.382,0.14,0.03,-0.01,0.14
0.392,0.15,0.02,-0.07,0.16
0.402,0.17,0.02,-0.16,0.23
0.412,0.20,0.01,-0.19,0.28
0.422,0.20,0.04,-0.24,0.32
0.432,0.15,0.12,-0.25,0.32
0.443,0.12,0.16,-0.25,0.32
0.453,0.06,0.15,-0.29,0.33
0.463,-0.03,0.11,-0.28,0.30
0.473,-0.08,0.05,-0.23,0.24
0.483,-0.05,-0.03,-0.16,0.17
0.493,0.04,-0.05,-0.04,0.07
0.503,0.14,0.00,-0.01,0.14
0.513,0.22,0.04,-0.04,0.23
0.523,0.24,0.01,-0.07,0.25
0.533,0.19,-0.03,-0.14,0.24
0.543,0.10,-0.04,-0.16,0.20
0.553,0.05,-0.02,-0.18,0.19
0.563,-0.02,-0.05,-0.20,0.20
0.573,-0.12,-0.06,-0.20,0.24
0.583,-0.18,-0.07,-0.14,0.24
0.593,-0.24,-0.08,-0.10,0.27
0.604,-0.24,-0.05,-0.08,0.25
0.614,-0.21,0.03,-0.07,0.22
0.624,-0.16,0.06,-0.10,0.19
0.634,-0.11,0.04,-0.09,0.15
0.644,-0.08,0.00,-0.07,0.11
0.654,-0.07,0.00,-0.05,0.09
0.664,-0.01,0.05,-0.03,0.06
0.674,0.05,0.14,-0.01,0.15
0.684,0.13,0.16,-0.06,0.21
0.694,0.13,0.08,-0.10,0.18
0.704,0.07,0.00,-0.10,0.13
0.714,0.06,-0.02,-0.06,0.09
0.724,0.05,0.04,-0.06,0.09
0.734,0.05,0.05,-0.09,0.11
0.744,0.02,0.05,-0.13,0.14
0.754,-0.04,0.02,-0.14,0.15
0.764,-0.09,0.02,-0.15,0.18
0.775,-0.08,0.04,-0.10,0.13
0.785,0.00,0.04,-0.08,0.09
0.795,0.06,0.01,-0.07,0.09
0.805,0.08,-0.02,-0.04,0.09
0.815,0.08,-0.04,-0.00,0.09
0.825,0.09,-0.04,0.03,0.10
0.835,0.09,-0.04,0.06,0.12
0.845,0.09,0.01,-0.03,0.09
0.855,0.07,0.04,-0.10,0.13
0.865,0.04,0.05,-0.15,0.16
0.875,-0.04,0.00,-0.17,0.18
0.885,-0.14,0.01,-0.17,0.22
0.895,-0.24,-0.01,-0.12,0.27
0.905,-0.28,-0.05,-0.05,0.29
0.915,-0.31,-0.11,-0.06,0.33
0.925,-0.32,-0.13,0.01,0.35
0.935,-0.25,-0.10,0.09,0.28
0.945,-0.16,-0.01,0.05,0.17
0.956,-0.07,0.08,-0.00,0.11
0.966,-0.00,0.11,-0.01,0.11
0.976,0.07,0.09,0.02,0.12
0.986,0.11,0.00,-0.05,0.12
0.996,0.08,-0.09,-0.10,0.16
1.006,0.04,-0.18,-0.07,0.19
1.016,-0.01,-0.21,-0.05,0.21
1.026,-0.08,-0.16,-0.02,0.18
1.036,-0.18,-0.06,-0.01,0.19
1.046,-0.28,0.00,-0.01,0.28
1.056,-0.40,-0.01,-0.04,0.40
1.066,-0.47,-0.07,-0.09,0.48
1.076,-0.48,-0.18,-0.09,0.52
1.086,-0.45,-0.27,-0.01,0.53
1.096,-0.39,-0.31,0.08,0.50
1.106,-0.31,-0.24,0.14,0.42
1.117,-0.27,-0.13,0.15,0.33
1.126,-0.25,0.04,0.12,0.28
1.137,-0.25,0.11,0.14,0.31
1.147,-0.29,0.10,0.22,0.38
1.157,-0.31,0.06,0.22,0.39
1.167,-0.24,0.00,0.24,0.34
1.177,-0.12,-0.09,0.27,0.31
1.187,-0.10,-0.18,0.20,0.29
1.197,-0.15,-0.22,0.22,0.35
1.207,-0.24,-0.17,0.26,0.39
1.217,-0.29,-0.12,0.24,0.39
1.227,-0.24,-0.03,0.16,0.29
1.237,-0.24,0.03,0.19,0.31
1.248,-0.24,0.01,0.30,0.38
1.257,-0.16,0.01,0.21,0.26
1.267,-0.08,0.02,0.25,0.26
1.277,-0.07,-0.05,0.24,0.26
1.287,-0.07,-0.16,0.30,0.35
1.297,-0.05,-0.26,0.33,0.42
1.308,-0.06,-0.25,0.29,0.39
1.318,-0.06,-0.16,0.18,0.25
1.328,0.05,-0.10,0.25,0.27
1.338,0.23,-0.17,0.41,0.50
1.348,0.32,-0.38,0.50,0.70
1.358,0.40,-0.54,0.42,0.79
1.368,0.51,-0.48,0.43,0.82
1.378,0.67,-0.24,0.41,0.83
1.388,0.82,-0.03,0.37,0.90
1.398,0.90,0.02,0.29,0.95
1.408,0.90,-0.02,0.25,0.93
1.418,0.83,-0.02,0.22,0.86
1.428,0.82,0.16,0.27,0.88
1.438,0.83,0.34,0.29,0.95
1.448,0.82,0.37,0.23,0.93
1.458,0.76,0.21,0.18,0.81
1.469,0.65,0.09,0.11,0.66
1.479,0.57,0.13,0.04,0.58
1.489,0.53,0.26,-0.06,0.59
1.499,0.44,0.29,-0.10,0.54
1.509,0.24,0.15,-0.10,0.30
1.519,0.08,-0.04,-0.00,0.08
1.529,-0.02,-0.05,0.05,0.07
1.539,0.05,0.05,0.07,0.10
1.549,0.23,0.08,0.16,0.30
1.559,0.32,0.01,0.23,0.39
1.569,0.33,-0.18,0.26,0.46
1.579,0.37,-0.40,0.25,0.59
1.589,0.38,-0.46,0.22,0.63
1.599,0.46,-0.37,0.12,0.61
1.609,0.56,-0.23,0.04,0.60
1.619,0.59,-0.22,-0.00,0.63
1.630,0.63,-0.25,0.00,0.68
1.639,0.61,-0.18,-0.03,0.64
1.649,0.57,-0.01,-0.08,0.58
1.660,0.50,0.11,-0.03,0.51
1.670,0.37,0.07,0.03,0.38
1.680,0.26,-0.09,0.11,0.29
1.690,0.23,-0.26,0.24,0.42
1.700,0.27,-0.32,0.37,0.56
1.710,0.28,-0.23,0.35,0.50
1.720,0.25,-0.09,0.24,0.36
1.730,0.22,0.01,0.15,0.26
1.740,0.18,-0.01,0.14,0.23
1.750,0.20,-0.02,0.15,0.25
1.760,0.27,0.01,0.15,0.31
1.770,0.32,0.08,0.12,0.35
1.780,0.44,0.11,0.18,0.49
1.790,0.50,0.12,0.30,0.60
1.800,0.44,-0.02,0.40,0.60
1.811,0.33,-0.28,0.46,0.63
1.820,0.26,-0.48,0.51,0.75
1.831,0.21,-0.51,0.45,0.71
1.841,0.12,-0.38,0.28,0.48
1.851,-0.02,-0.26,0.13,0.29
1.861,-0.18,-0.27,-0.06,0.33
1.871,-0.24,-0.34,-0.17,0.45
1.881,-0.17,-0.40,-0.04,0.43
1.891,0.12,-0.46,0.22,0.53
1.901,0.37,-0.41,0.35,0.65
1.911,0.51,-0.39,0.38,0.74
1.921,0.59,-0.46,0.31,0.82
1.931,0.56,-0.54,0.20,0.80
1.941,0.44,-0.57,0.06,0.72
1.951,0.31,-0.52,0.02,0.61
1.961,0.28,-0.46,0.07,0.54
1.971,0.27,-0.45,0.10,0.53
1.981,0.27,-0.54,0.19,0.63
1.991,0.27,-0.63,0.24,0.73
2.001,0.27,-0.70,0.26,0.80
2.011,0.34,-0.71,0.25,0.83
2.021,0.50,-0.63,-0.02,0.80
2.032,0.48,-0.58,-0.13,0.76
2.042,0.45,-0.62,0.02,0.77
2.052,0.63,-0.68,0.05,0.93
2.062,0.93,-0.67,0.08,1.15
2.072,1.29,-0.57,0.10,1.42
2.082,1.55,-0.61,0.09,1.67
2.092,1.62,-0.72,0.04,1.78
2.102,1.48,-0.81,0.05,1.68
2.112,1.16,-0.88,-0.02,1.45
2.122,0.73,-0.91,0.02,1.17
2.132,0.37,-0.90,0.19,0.99
2.142,0.12,-0.98,0.64,1.18
2.152,0.11,-1.11,0.94,1.46
2.162,0.09,-1.27,1.18,1.74
2.173,0.20,-1.35,1.34,1.91
2.183,0.45,-1.32,1.14,1.80
2.193,0.61,-1.25,0.89,1.65
2.203,0.81,-1.13,0.55,1.49
2.213,0.91,-0.94,0.40,1.37
2.223,0.98,-0.76,0.48,1.33
2.233,1.09,-0.57,0.58,1.36
2.243,1.04,-0.54,0.74,1.39
2.253,1.12,-0.64,0.68,1.46
2.263,1.53,-0.75,0.67,1.83
2.273,1.89,-0.75,0.77,2.17
2.283,2.02,-0.71,0.80,2.29
2.293,2.04,-0.67,0.74,2.27
2.303,1.98,-0.69,0.69,2.21
2.313,1.93,-0.82,0.78,2.24
2.323,1.83,-1.05,0.81,2.27
2.333,1.66,-1.31,0.80,2.26
2.344,1.45,-1.43,0.88,2.22
2.354,1.21,-1.55,0.95,2.18
2.364,0.99,-1.75,0.68,2.12
2.374,0.78,-2.08,0.11,2.22
2.384,0.75,-2.42,-0.38,2.56
2.394,0.99,-2.69,-0.42,2.89
2.404,1.51,-2.90,-0.28,3.28
2.414,1.97,-2.88,-0.11,3.49
2.424,2.26,-2.51,0.32,3.39
2.434,2.54,-1.85,1.21,3.37
2.444,2.70,-0.75,1.43,3.15
2.454,1.93,1.11,0.71,2.34
2.464,-0.13,3.54,-0.28,3.55
2.474,-1.97,5.61,-1.06,6.04
2.484,-3.03,6.80,-1.41,7.57
2.494,-4.00,7.53,-1.65,8.68
2.504,-4.47,7.57,-1.55,8.93
2.514,-4.11,6.92,-1.05,8.12
2.525,-3.23,6.06,-0.89,6.92
2.535,-2.18,5.17,-1.61,5.84
2.545,-1.40,4.30,-2.34,5.09
2.555,-0.74,3.38,-2.49,4.26
2.565,-0.24,2.44,-2.04,3.18
2.575,0.02,1.65,-1.45,2.20
2.585,0.09,1.00,-0.96,1.39
2.595,-0.01,0.61,-0.67,0.91
2.605,-0.27,0.53,-0.47,0.76
2.615,-0.68,0.62,-0.27,0.96
2.625,-0.97,0.77,-0.14,1.25
2.635,-1.04,0.69,0.02,1.25
2.645,-0.84,0.49,0.33,1.03
2.655,-0.48,0.21,0.46,0.70
2.665,-0.06,-0.06,0.22,0.24
2.676,0.23,-0.29,-0.22,0.43
2.685,0.34,-0.59,-0.44,0.81
2.695,0.33,-0.90,-0.45,1.06
2.706,0.16,-1.21,-0.51,1.32
2.716,0.03,-1.31,-0.53,1.41
2.726,-0.14,-1.19,-0.48,1.29
2.736,-0.28,-1.00,-0.42,1.13
2.746,-0.36,-0.79,-0.31,0.92
2.756,-0.61,-0.71,-0.14,0.95
2.766,-0.99,-0.73,0.03,1.23
2.776,-1.30,-0.75,0.11,1.51
2.786,-1.53,-0.70,0.13,1.69
2.796,-1.66,-0.56,0.21,1.77
2.806,-1.65,-0.32,0.22,1.69
2.816,-1.55,0.04,0.05,1.55
2.826,-1.47,0.35,-0.09,1.51
2.836,-1.43,0.48,-0.13,1.51
2.846,-1.32,0.33,-0.20,1.38
2.856,-1.15,-0.01,-0.34,1.20
2.866,-0.91,-0.32,-0.40,1.04
2.877,-0.60,-0.54,-0.26,0.85
2.887,-0.38,-0.65,-0.11,0.76
2.897,-0.26,-0.74,-0.07,0.79
2.907,-0.12,-0.80,-0.11,0.82
2.917,0.07,-0.88,0.09,0.89
2.927,0.23,-1.07,0.29,1.13
2.937,0.39,-1.33,0.48,1.47
2.947,0.48,-1.56,0.67,1.76
2.957,0.57,-1.66,0.83,1.94
2.967,0.66,-1.64,0.94,2.00
2.977,0.63,-1.59,0.94,1.95
2.987,0.47,-1.49,0.92,1.81
2.997,0.24,-1.46,0.95,1.75
3.007,0.11,-1.56,0.93,1.82
3.017,0.21,-1.65,0.66,1.79
3.028,0.34,-1.70,0.38,1.77
3.037,0.44,-1.75,0.13,1.81
3.047,0.62,-1.74,-0.07,1.85
3.058,0.82,-1.70,-0.09,1.88
3.068,0.94,-1.74,-0.02,1.98
3.078,0.96,-1.96,-0.00,2.19
3.088,0.89,-2.14,-0.14,2.32
3.098,0.62,-2.36,-0.38,2.47
3.108,0.23,-2.61,-0.60,2.69
3.118,-0.24,-2.93,-0.49,2.98
3.128,-0.63,-3.22,-0.24,3.29
3.138,-0.92,-3.29,-0.01,3.41
3.148,-1.19,-3.25,0.15,3.46
3.158,-1.30,-2.96,0.34,3.25
3.168,-1.15,-2.39,0.45,2.69
3.178,-0.74,-1.72,0.51,1.94
3.188,-0.13,-1.07,0.71,1.29
3.198,0.54,-0.49,0.98,1.22
3.209,1.11,-0.01,0.94,1.45
3.218,1.38,0.35,0.73,1.60
3.229,1.25,0.54,0.66,1.52
3.239,0.76,0.24,1.01,1.29
3.249,0.32,-0.49,1.50,1.61
3.259,0.38,-1.23,1.82,2.23
3.269,0.82,-1.66,2.03,2.75
3.279,1.23,-1.98,2.18,3.19
3.289,1.53,-2.08,2.17,3.37
3.299,1.59,-1.26,1.68,2.64
3.309,1.00,0.29,0.75,1.28
3.319,0.40,2.45,0.36,2.51
3.329,-0.32,4.74,0.12,4.76
3.339,-2.05,6.10,-0.61,6.47
3.349,-3.82,7.28,-2.08,8.48
3.360,-4.05,8.11,-2.62,9.44
3.369,-3.21,7.45,-2.44,8.47
3.379,-2.53,5.50,-1.86,6.34
3.390,-1.42,3.84,-0.80,4.18
3.400,0.13,3.39,-0.78,3.48
3.410,1.36,3.49,-0.96,3.86
3.420,1.63,3.43,-0.52,3.83
3.430,1.07,2.96,0.07,3.15
3.440,0.27,2.13,0.73,2.27
3.450,-0.32,1.54,1.09,1.91
3.460,-0.60,1.24,1.19,1.82
3.470,-0.71,0.99,1.30,1.78
3.480,-0.91,0.80,1.15,1.67
3.490,-1.02,0.66,0.83,1.47
3.500,-0.77,0.58,0.40,1.04
3.510,-0.08,0.47,-0.12,0.49
3.520,0.70,0.40,-0.75,1.10
3.530,1.05,0.38,-1.35,1.75
3.540,1.02,0.34,-1.71,2.02
3.550,0.76,0.28,-1.58,1.77
3.561,0.35,0.09,-1.30,1.35
3.570,-0.04,-0.21,-1.02,1.04
3.581,-0.40,-0.55,-0.78,1.03
3.591,-0.62,-0.94,-0.59,1.27
3.601,-0.64,-1.18,-0.36,1.39
3.611,-0.50,-1.28,-0.09,1.37
3.621,-0.20,-1.42,0.20,1.44
3.631,0.23,-1.64,0.36,1.69
3.641,0.69,-1.81,0.32,1.96
3.651,1.10,-1.75,0.22,2.08
3.661,1.39,-1.40,0.06,1.98
3.671,1.52,-1.00,-0.23,1.83
3.681,1.43,-0.72,-0.57,1.70
3.691,1.21,-0.46,-0.77,1.51
3.701,0.91,-0.16,-0.83,1.24
3.711,0.54,0.15,-1.04,1.18
3.721,0.21,0.23,-0.97,1.02
3.731,-0.04,0.13,-0.53,0.55
3.741,-0.25,-0.09,-0.18,0.32
3.751,-0.31,-0.33,0.02,0.45
3.762,-0.13,-0.50,0.23,0.57
3.772,0.23,-0.69,0.43,0.84
3.782,0.52,-0.86,0.50,1.12
3.792,0.59,-0.93,0.39,1.17
3.802,0.57,-0.91,0.03,1.07
3.812,0.35,-0.86,-0.48,1.04
3.822,-0.02,-0.99,-0.61,1.16
3.832,-0.31,-1.20,-0.56,1.36
3.842,-0.69,-1.49,-0.64,1.76
3.852,-1.02,-1.81,-0.88,2.26
3.862,-1.01,-2.10,-0.98,2.53
3.872,-0.75,-2.29,-0.86,2.56
3.882,-0.42,-2.74,-0.49,2.81
3.892,0.04,-3.21,-0.27,3.22
3.902,0.58,-3.53,-0.00,3.58
3.913,1.05,-3.71,0.34,3.87
3.923,1.52,-3.71,0.40,4.03
3.933,1.99,-3.49,0.70,4.08
3.943,2.44,-2.97,1.06,3.99
3.953,2.72,-2.10,1.19,3.64
3.963,2.62,-1.20,1.09,3.08
3.973,2.18,-0.45,0.83,2.38
3.983,1.60,0.08,0.72,1.76
3.993,0.89,0.34,0.59,1.12
4.003,0.14,0.23,0.46,0.54
4.013,-0.35,-0.21,0.48,0.63
4.023,-0.51,-0.80,0.61,1.13
4.033,-0.29,-1.23,0.58,1.39
4.043,0.30,-1.38,0.35,1.46
4.053,0.94,-1.39,0.17,1.69
4.063,1.43,-1.10,0.17,1.81
4.073,1.65,-0.60,0.06,1.76
4.083,1.57,-0.31,0.09,1.60
4.094,1.47,-0.22,0.17,1.50
4.104,1.33,0.33,0.17,1.38
4.114,1.08,1.28,-0.09,1.68
4.124,0.38,2.48,-0.81,2.64
4.134,-0.82,3.41,-1.53,3.82
4.144,-1.80,3.93,-1.76,4.67
4.154,-2.47,4.16,-1.96,5.22
4.164,-2.93,4.41,-2.80,5.99
4.174,-3.19,4.40,-3.75,6.60
4.184,-3.61,4.12,-3.56,6.53
4.194,-4.30,4.18,-1.59,6.21
4.204,-4.50,4.60,1.18,6.55
4.214,-3.60,5.65,2.44,7.13
4.224,-2.11,6.87,1.57,7.35
4.234,-0.29,7.36,0.20,7.37
4.244,1.31,6.60,-0.37,6.74
4.254,2.29,4.92,-0.42,5.44
4.265,2.72,3.19,-0.19,4.19
4.275,2.73,1.67,0.32,3.21
4.285,2.47,0.61,0.51,2.59
4.295,1.87,0.11,0.45,1.93
4.305,1.10,-0.18,0.36,1.17
4.315,0.39,-0.32,0.11,0.52
4.325,-0.14,-0.57,-0.19,0.61
4.335,-0.38,-1.02,-0.43,1.17
4.345,-0.50,-1.54,-0.45,1.68
4.355,-0.62,-2.09,-0.16,2.18
4.365,-0.69,-2.57,0.16,2.67
4.375,-0.75,-2.95,0.30,3.06
4.385,-0.67,-3.23,0.22,3.31
4.395,-0.52,-3.34,-0.10,3.38
4.405,-0.37,-3.20,-0.41,3.25
4.416,-0.40,-2.79,-0.55,2.88
4.425,-0.63,-2.16,-0.60,2.33
4.436,-0.88,-1.59,-0.68,1.95
4.446,-1.18,-1.23,-0.60,1.81
4.456,-1.49,-0.98,-0.50,1.85
4.466,-1.70,-0.71,-0.43,1.89
4.476,-1.77,-0.44,-0.34,1.86
4.486,-1.56,-0.19,-0.34,1.60
4.496,-1.11,-0.02,-0.38,1.18
4.506,-0.68,0.02,-0.24,0.72
4.516,-0.26,-0.03,0.21,0.34
4.526,0.18,-0.21,0.77,0.82
4.536,0.69,-0.41,0.91,1.21
4.546,1.23,-0.57,0.70,1.53
4.556,1.58,-0.80,0.47,1.83
4.566,1.75,-1.10,0.39,2.10
4.576,1.68,-1.40,0.70,2.29
4.586,1.50,-1.57,1.04,2.41
4.596,1.36,-1.63,1.13,2.41
4.606,1.09,-1.67,1.11,2.28
4.617,0.79,-1.74,0.89,2.11
4.627,0.54,-1.97,0.58,2.13
4.637,0.32,-2.24,0.35,2.29
4.647,0.29,-2.52,0.25,2.55
4.657,0.29,-2.70,0.21,2.72
4.667,0.12,-2.77,-0.06,2.77
4.677,-0.21,-3.03,-0.28,3.05
4.687,-0.70,-3.25,-0.18,3.33
4.697,-1.03,-3.50,0.07,3.64
4.707,-0.95,-3.64,0.30,3.77
4.717,-0.87,-3.52,0.34,3.64
4.727,-0.86,-3.17,0.27,3.30
4.737,-0.73,-2.62,0.19,2.73
4.747,-0.25,-2.00,0.19,2.03
4.757,0.32,-1.43,0.27,1.49
4.767,0.64,-0.92,0.29,1.16
4.777,0.87,-0.55,0.34,1.08
4.787,1.04,-0.53,0.70,1.36
4.798,1.01,-0.67,0.92,1.52
4.808,0.72,-0.80,0.85,1.37
4.817,0.25,-0.93,0.49,1.08
4.828,-0.08,-1.22,0.61,1.36
4.838,0.10,-1.16,0.86,1.44
4.848,0.06,-0.13,-0.16,0.21
4.858,0.05,1.25,-0.23,1.27
4.868,0.43,3.13,0.05,3.16
4.878,-0.24,4.51,0.13,4.52
4.888,-1.58,5.11,-0.97,5.44
4.898,-1.86,5.75,-1.52,6.23
4.908,-1.52,6.20,-1.49,6.55
4.918,-1.07,5.59,-1.35,5.85
4.928,-0.71,4.95,-0.52,5.02
4.938,-0.53,5.21,-0.59,5.27
4.948,-0.02,6.03,-0.96,6.11
4.959,-0.19,5.57,-0.28,5.58
4.969,-0.78,4.12,0.45,4.22
4.979,-0.64,3.10,0.74,3.25
4.989,-0.15,2.45,1.16,2.72
4.999,0.16,2.20,1.39,2.60
5.009,0.47,2.27,1.46,2.74
5.019,0.67,2.28,1.28,2.70
5.029,0.58,2.30,0.77,2.50
5.039,0.43,2.20,0.25,2.26
5.049,0.47,2.03,-0.11,2.09
5.059,0.42,1.65,-0.43,1.76
5.069,0.19,1.10,-0.62,1.27
5.079,-0.13,0.62,-0.58,0.86
5.089,-0.36,0.12,-0.55,0.67
5.099,-0.46,-0.45,-0.58,0.86
5.109,-0.48,-1.06,-0.61,1.32
5.119,-0.42,-1.53,-0.67,1.72
5.129,-0.26,-1.72,-0.70,1.87
5.139,-0.01,-1.74,-0.78,1.90
5.150,0.14,-1.70,-0.88,1.92
5.160,0.19,-1.72,-0.90,1.95
5.170,0.30,-1.75,-0.84,1.97
5.180,0.44,-1.84,-0.70,2.01
5.190,0.63,-1.90,-0.62,2.10
5.200,0.88,-1.87,-0.57,2.14
5.210,1.16,-1.74,-0.61,2.18
5.220,1.32,-1.49,-0.90,2.19
5.230,1.20,-1.21,-1.23,2.10
5.240,0.92,-0.97,-1.43,1.95
5.250,0.54,-0.75,-1.54,1.80
5.260,0.15,-0.71,-1.34,1.53
5.270,-0.29,-0.92,-1.11,1.47
5.280,-0.73,-1.33,-0.97,1.80
5.290,-0.94,-1.78,-0.79,2.16
5.301,-0.94,-2.13,-0.53,2.39
5.310,-0.82,-2.50,-0.12,2.63
5.321,-0.47,-2.86,0.43,2.93
5.331,0.10,-2.85,0.95,3.01
5.341,0.87,-2.05,1.05,2.46
5.351,1.60,-0.63,0.64,1.83
5.361,1.96,0.51,0.17,2.03
5.371,1.86,1.01,-0.06,2.11
5.381,1.54,0.74,-0.11,1.71
5.391,1.09,-0.21,-0.12,1.12
5.401,0.93,-1.22,-0.19,1.55
5.411,1.23,-1.98,-0.41,2.36
5.421,1.34,-2.24,-0.25,2.62
5.431,1.07,-2.27,0.28,2.53
5.441,0.97,-2.14,0.66,2.44
5.451,0.76,-1.88,0.74,2.16
5.461,0.51,-1.76,0.56,1.92
5.471,0.48,-1.77,0.35,1.87
5.481,0.54,-1.91,0.52,2.05
5.491,0.59,-1.97,0.81,2.21
5.502,0.76,-1.83,0.74,2.12
5.512,1.03,-1.50,0.46,1.88
5.522,1.32,-0.92,0.21,1.62
5.532,1.43,-0.37,0.12,1.49
5.542,1.29,-0.05,0.02,1.29
5.552,0.86,-0.06,-0.15,0.87
5.562,0.46,-0.25,-0.14,0.54
5.572,0.32,-0.41,0.09,0.54
5.582,0.21,-0.56,0.25,0.65
5.592,0.16,-0.84,0.17,0.87
5.602,0.11,-0.94,0.27,0.99
5.612,-0.08,-0.55,0.54,0.78
5.622,-0.34,0.22,0.64,0.76
5.633,-0.97,1.21,0.14,1.55
5.642,-1.49,2.16,-0.51,2.67
5.652,-1.71,3.02,-0.87,3.58
5.663,-2.02,3.90,-1.00,4.51
5.673,-2.34,4.55,-0.98,5.21
5.683,-2.28,4.96,-0.83,5.52
5.693,-2.13,5.49,-0.50,5.91
5.703,-2.19,6.08,0.15,6.46
5.713,-1.87,6.61,0.48,6.89
5.723,-0.69,7.10,-0.36,7.14
5.733,0.73,6.98,-1.36,7.15
5.743,1.36,6.06,-1.65,6.42
5.753,1.35,4.89,-1.40,5.26
5.763,0.82,3.55,-0.63,3.70
5.773,0.01,2.16,0.43,2.21
5.783,-0.73,0.94,1.00,1.55
5.793,-1.09,0.12,0.96,1.46
5.803,-1.08,-0.36,0.81,1.39
5.814,-0.69,-0.60,0.49,1.04
5.823,-0.06,-0.80,0.10,0.81
5.834,0.54,-0.99,-0.12,1.14
5.844,0.81,-1.17,-0.28,1.45
5.854,0.77,-1.31,-0.38,1.56
5.864,0.56,-1.52,-0.30,1.64
5.874,0.18,-1.81,-0.14,1.83
5.884,-0.25,-2.08,-0.04,2.10
5.894,-0.62,-2.20,-0.03,2.29
5.904,-0.89,-2.18,-0.05,2.35
5.914,-1.05,-2.08,-0.11,2.33
5.924,-1.14,-2.03,-0.13,2.33
5.934,-1.11,-2.00,-0.11,2.29
5.944,-1.07,-1.91,-0.03,2.19
5.954,-1.04,-1.75,0.07,2.04
5.964,-1.02,-1.53,0.13,1.85
5.974,-0.96,-1.30,0.04,1.61
5.984,-0.92,-1.08,-0.09,1.42
5.994,-0.91,-0.90,-0.11,1.28
6.004,-0.89,-0.79,-0.06,1.19
6.015,-0.84,-0.68,-0.04,1.08
6.025,-0.68,-0.65,0.04,0.94
6.035,-0.42,-0.72,0.23,0.86
6.045,-0.13,-0.90,0.46,1.02
6.055,0.23,-1.11,0.55,1.26
6.065,0.66,-1.26,0.52,1.51
6.075,0.96,-1.46,0.49,1.81
6.085,1.00,-1.69,0.46,2.02
6.095,0.85,-1.96,0.40,2.17
6.105,0.58,-2.12,0.52,2.26
6.115,0.25,-2.30,0.67,2.41
6.125,-0.16,-2.33,0.65,2.42
6.135,-0.43,-2.16,0.34,2.23
6.145,-0.48,-1.95,-0.08,2.01
6.155,-0.46,-1.88,-0.42,1.98
6.166,-0.38,-2.01,-0.56,2.12
6.175,-0.26,-2.38,-0.57,2.46
6.186,-0.29,-2.87,-0.39,2.91
6.195,-0.39,-3.25,-0.13,3.27
6.206,-0.52,-3.26,0.05,3.30
6.216,-0.65,-2.87,0.13,2.95
6.226,-0.75,-2.11,0.18,2.25
6.236,-0.74,-1.32,0.21,1.53
6.246,-0.49,-0.80,0.22,0.96
6.256,-0.14,-0.63,0.45,0.79
6.266,0.31,-0.72,0.77,1.10
6.276,0.64,-1.02,0.85,1.47
6.286,0.83,-1.39,0.90,1.86
6.296,0.76,-1.74,1.06,2.17
6.306,0.67,-1.99,1.25,2.45
6.316,0.79,-2.10,1.50,2.70
6.326,0.98,-2.08,1.69,2.85
6.336,1.09,-1.95,1.64,2.77
6.346,0.80,-1.07,0.19,1.35
6.357,-0.06,0.15,-0.96,0.98
6.367,0.11,1.85,-1.10,2.15
6.377,0.15,3.12,-1.07,3.30
6.387,-1.57,2.91,-1.33,3.57
6.397,-2.38,3.62,-2.04,4.79
6.407,-2.32,5.27,-2.26,6.18
6.417,-2.02,6.46,-2.30,7.15
6.427,-1.58,6.31,-1.63,6.71
6.437,-1.31,5.46,-1.03,5.71
6.447,-0.45,5.83,-1.19,5.97
6.457,0.56,6.70,-0.08,6.73
6.467,0.59,6.72,0.98,6.82
6.477,-0.02,5.38,1.23,5.52
6.487,-0.25,3.80,1.16,3.98
6.497,-0.31,2.63,1.25,2.93
6.507,-0.29,2.18,1.49,2.66
6.517,-0.07,2.34,1.68,2.88
6.527,0.20,2.61,1.64,3.08
6.538,0.55,2.66,1.27,3.00
6.548,1.12,2.55,0.92,2.93
6.558,1.70,2.34,0.60,2.96
6.568,2.04,2.06,0.20,2.90
6.578,1.89,1.57,-0.20,2.46
6.588,1.43,0.89,-0.44,1.74
6.598,0.97,0.14,-0.48,1.09
6.608,0.60,-0.54,-0.48,0.94
6.618,0.17,-1.11,-0.53,1.24
6.628,-0.22,-1.54,-0.60,1.67
6.638,-0.54,-1.94,-0.57,2.09
6.648,-0.71,-2.23,-0.56,2.41
6.658,-0.73,-2.43,-0.47,2.58
6.668,-0.57,-2.53,-0.39,2.62
6.678,-0.22,-2.48,-0.44,2.52
6.688,0.21,-2.33,-0.56,2.41
6.698,0.58,-2.04,-0.70,2.24
6.708,0.89,-1.62,-0.81,2.02
6.719,1.15,-1.15,-0.75,1.79
6.729,1.29,-0.77,-0.61,1.62
6.739,1.27,-0.51,-0.54,1.47
6.749,1.11,-0.38,-0.44,1.25
6.759,0.95,-0.33,-0.19,1.03
6.769,0.81,-0.32,0.01,0.87
6.779,0.64,-0.36,-0.03,0.73
6.789,0.44,-0.45,-0.13,0.64
6.799,0.23,-0.65,-0.21,0.72
6.809,0.06,-0.92,-0.23,0.95
6.819,-0.03,-1.25,-0.19,1.27
6.829,-0.01,-1.58,-0.11,1.59
6.839,0.09,-1.78,0.07,1.78
6.849,0.24,-1.79,0.22,1.82
6.859,0.49,-1.60,0.16,1.68
6.870,0.84,-1.45,0.09,1.68
6.880,1.25,-1.36,0.02,1.85
6.890,1.42,-1.35,-0.23,1.97
6.900,1.28,-1.54,-0.66,2.11
6.910,1.00,-1.87,-0.92,2.31
6.920,0.78,-2.25,-0.90,2.55
6.930,0.64,-2.76,-0.59,2.89
6.940,0.42,-3.23,-0.06,3.26
6.950,0.21,-3.29,0.51,3.34
6.960,0.29,-2.55,0.78,2.69
6.970,0.40,-1.14,0.67,1.38
6.980,0.31,0.01,0.22,0.38
6.990,0.27,0.41,-0.20,0.53
7.000,0.34,0.04,-0.31,0.46
7.010,0.68,-0.59,-0.32,0.96
7.020,1.09,-1.29,-0.20,1.70
7.030,1.42,-2.05,-0.06,2.50
7.040,1.61,-2.67,0.08,3.11
7.051,1.60,-3.12,0.47,3.53
7.060,1.43,-3.26,0.96,3.69
7.071,1.31,-3.07,1.09,3.51
7.081,1.17,-2.68,0.88,3.05
7.091,1.07,-2.12,0.48,2.43
7.101,1.17,-1.28,0.11,1.74
7.111,1.10,0.02,-0.11,1.10
7.121,0.32,1.50,-0.82,1.74
7.131,-1.22,2.93,-1.55,3.53
7.141,-2.61,3.85,-1.41,4.85
7.151,-3.07,4.10,-0.22,5.13
7.161,-2.87,4.17,0.34,5.08
7.171,-2.75,4.70,-0.36,5.46
7.181,-2.51,5.70,-1.51,6.41
7.191,-2.24,6.66,-2.12,7.34
7.201,-2.09,6.84,-1.30,7.27
7.211,-1.31,6.69,-0.11,6.82
7.221,-0.21,6.60,-0.14,6.61
7.232,0.56,6.45,-1.06,6.56
7.242,0.95,6.07,-1.77,6.39
7.252,0.92,5.30,-1.88,5.70
7.262,0.49,4.18,-1.04,4.33
7.272,-0.16,2.90,0.14,2.91
7.282,-0.76,1.66,0.94,2.05
7.292,-1.26,0.62,1.05,1.75
7.302,-1.33,0.01,0.89,1.60
7.312,-1.22,-0.36,0.55,1.39
7.322,-0.86,-0.58,0.13,1.04
7.332,-0.43,-0.72,-0.10,0.85
7.342,-0.07,-0.89,-0.08,0.89
7.352,0.13,-1.03,-0.07,1.04
7.362,0.15,-1.30,-0.13,1.32
7.372,0.01,-1.67,-0.21,1.69
7.382,-0.22,-2.09,-0.22,2.11
7.392,-0.47,-2.45,-0.18,2.50
7.402,-0.59,-2.66,-0.17,2.73
7.412,-0.60,-2.74,-0.22,2.81
7.423,-0.64,-2.68,-0.27,2.77
7.433,-0.61,-2.59,-0.31,2.67
7.443,-0.56,-2.42,-0.36,2.51
7.453,-0.54,-2.19,-0.39,2.29
7.463,-0.50,-2.04,-0.36,2.13
7.473,-0.49,-1.99,-0.30,2.07
7.483,-0.54,-2.00,-0.23,2.08
7.493,-0.63,-1.97,-0.05,2.07
7.503,-0.67,-1.88,0.27,2.01
7.513,-0.58,-1.67,0.54,1.85
7.523,-0.39,-1.33,0.60,1.51
7.533,-0.18,-0.98,0.62,1.17
7.543,0.02,-0.64,0.52,0.82
7.553,0.21,-0.43,0.45,0.66
7.563,0.35,-0.37,0.46,0.69
7.574,0.39,-0.32,0.39,0.64
7.584,0.29,-0.32,0.53,0.68
7.594,0.02,-0.21,0.78,0.81
7.604,-0.20,-0.02,0.76,0.78
7.614,-0.33,-0.04,0.50,0.60
7.624,-0.35,-0.27,0.18,0.48
7.634,-0.15,-0.73,-0.17,0.76
7.644,0.18,-1.36,-0.32,1.41
7.654,0.50,-2.06,-0.27,2.14
7.664,0.77,-2.80,0.04,2.90
7.674,0.87,-3.36,0.31,3.49
7.684,0.68,-3.53,0.50,3.63
7.694,0.33,-3.26,0.67,3.34
7.704,0.04,-2.96,0.66,3.03
7.714,-0.24,-2.71,0.67,2.81
7.724,-0.43,-2.32,0.55,2.42
7.734,-0.58,-1.95,0.40,2.07
7.744,-0.78,-1.67,0.60,1.94
7.755,-0.89,-1.36,1.02,1.92
7.765,-0.91,-1.08,1.47,2.04
7.775,-0.82,-0.84,1.64,2.01
7.785,-0.39,-0.67,1.12,1.36
7.795,0.28,-0.69,0.42,0.85
7.805,0.82,-0.93,0.23,1.26
7.815,1.14,-1.23,0.26,1.70
7.825,1.26,-1.60,0.26,2.05
7.835,1.13,-2.17,0.67,2.53
7.845,1.02,-2.58,1.08,2.97
7.855,0.77,-1.97,0.27,2.13
7.865,0.28,-0.78,-0.14,0.84
7.875,0.17,0.83,-0.23,0.88
7.885,-0.39,1.99,-0.19,2.03
7.895,-1.62,2.55,-0.85,3.14
7.906,-1.93,3.87,-1.75,4.67
7.915,-2.13,5.20,-1.41,5.79
7.925,-1.90,5.54,-0.75,5.90
7.936,-0.85,4.77,-0.27,4.85
7.946,0.27,4.39,-0.45,4.42
7.956,1.56,5.68,-1.07,5.99
7.966,2.61,7.61,-0.51,8.06
7.976,2.25,7.82,0.23,8.14
7.986,1.29,6.27,0.53,6.42
7.996,0.94,4.45,0.61,4.59
8.006,0.71,3.21,0.92,3.41
8.016,0.22,2.66,1.51,3.06
8.026,-0.16,2.64,2.18,3.43
8.036,-0.19,2.69,2.43,3.64
8.046,-0.06,2.63,2.03,3.32
8.056,0.15,2.39,1.24,2.70
8.066,0.46,2.08,0.43,2.18
8.076,0.65,1.65,-0.24,1.79
8.087,0.70,1.21,-0.80,1.61
8.096,0.63,0.66,-1.18,1.49
8.107,0.49,0.12,-1.22,1.32
8.117,0.30,-0.34,-1.09,1.18
8.127,0.19,-0.75,-0.90,1.19
8.137,0.10,-1.15,-0.84,1.43
8.147,0.04,-1.57,-0.84,1.78
8.157,0.07,-1.82,-0.86,2.02
8.167,0.17,-1.92,-0.82,2.10
8.177,0.27,-1.99,-0.76,2.15
8.187,0.32,-2.16,-0.67,2.29
8.197,0.34,-2.24,-0.62,2.35
8.207,0.49,-2.32,-0.58,2.44
8.217,0.68,-2.33,-0.52,2.49
8.227,0.81,-2.21,-0.51,2.41
8.237,0.90,-1.98,-0.59,2.26
8.247,0.94,-1.71,-0.92,2.16
8.258,0.80,-1.56,-1.18,2.11
8.267,0.54,-1.56,-1.31,2.10
8.277,0.24,-1.79,-1.07,2.10
8.288,0.00,-2.04,-0.64,2.13
8.298,-0.13,-2.11,-0.35,2.14
8.308,-0.21,-1.96,-0.10,1.97
8.318,-0.08,-1.89,0.04,1.89
8.328,0.04,-1.74,0.06,1.74
8.338,0.12,-1.53,-0.07,1.54
8.348,0.14,-1.51,-0.32,1.55
8.358,0.08,-1.66,-0.57,1.75
8.368,0.00,-1.85,-0.61,1.95
8.378,0.09,-1.92,-0.43,1.97
8.388,0.31,-1.92,-0.10,1.95
8.398,0.77,-1.90,0.22,2.06
8.408,1.40,-1.82,0.40,2.33
8.418,1.98,-1.78,0.27,2.67
8.428,2.33,-1.77,0.04,2.93
8.438,2.36,-1.75,-0.06,2.94
8.449,2.14,-1.61,0.01,2.67
8.459,1.90,-1.40,0.19,2.36
8.469,1.55,-1.19,0.51,2.02
8.479,1.19,-0.96,0.72,1.69
8.489,0.78,-0.93,0.89,1.50
8.499,0.44,-1.27,1.18,1.78
8.509,0.68,-1.54,1.07,1.99
8.519,1.32,-1.48,0.77,2.13
8.529,1.98,-1.23,0.76,2.45
8.539,2.52,-0.99,0.74,2.81
8.549,2.64,-0.97,0.50,2.85
8.559,2.29,-1.22,0.23,2.60
8.569,1.76,-1.52,0.14,2.33
8.579,1.34,-1.46,0.66,2.09
8.589,0.70,-0.66,1.13,1.49
8.599,-0.19,0.97,0.70,1.21
8.609,-1.13,3.23,-0.53,3.46
8.620,-2.33,4.82,-0.60,5.39
8.630,-3.10,5.17,-0.31,6.03
8.640,-3.43,4.98,-1.05,6.14
8.650,-3.60,4.72,-2.19,6.32
8.660,-3.24,4.42,-2.95,6.22
8.670,-2.99,4.33,-3.33,6.23
8.680,-3.15,4.50,-2.76,6.15
8.690,-2.88,4.90,-1.67,5.92
8.700,-2.32,5.25,-1.05,5.84
8.710,-1.79,5.40,-0.91,5.76
8.720,-1.23,5.12,-0.67,5.31
8.730,-0.53,4.54,-0.53,4.60
8.740,0.15,3.80,-0.35,3.82
8.750,0.76,3.07,0.18,3.17
8.760,1.31,2.45,0.47,2.82
8.771,1.34,1.90,0.52,2.38
8.780,1.09,1.31,0.57,1.79
8.791,0.74,0.61,0.60,1.13
8.801,0.58,0.05,0.47,0.75
8.811,0.52,-0.41,0.10,0.67
8.821,0.48,-0.78,-0.26,0.96
8.831,0.37,-1.05,-0.35,1.17
8.841,-0.04,-1.21,-0.42,1.29
8.851,-0.60,-1.33,-0.44,1.53
8.861,-0.97,-1.46,-0.34,1.79
8.871,-1.13,-1.61,-0.27,1.98
8.881,-1.13,-1.78,-0.13,2.11
8.891,-0.94,-1.90,0.01,2.12
8.901,-0.53,-2.05,0.11,2.12
8.911,-0.22,-2.06,0.33,2.10
8.921,-0.01,-1.94,0.44,1.99
8.931,0.15,-1.74,0.33,1.78
8.941,0.17,-1.52,0.15,1.53
8.951,0.03,-1.26,0.02,1.26
8.961,-0.24,-1.01,-0.05,1.04
8.971,-0.56,-0.83,-0.02,1.00
8.982,-0.81,-0.68,-0.12,1.06
8.992,-0.92,-0.63,-0.32,1.16
9.002,-1.01,-0.66,-0.40,1.28
9.012,-1.03,-0.73,-0.27,1.29
9.022,-0.96,-0.72,-0.07,1.21
9.032,-0.76,-0.62,0.16,0.99
9.042,-0.53,-0.53,0.34,0.82
9.052,-0.29,-0.53,0.55,0.82
9.062,-0.02,-0.61,0.78,1.00
9.072,0.35,-0.77,0.89,1.23
9.082,0.78,-0.98,0.96,1.58
9.092,1.16,-1.24,0.93,1.93
9.102,1.42,-1.48,0.92,2.25
9.112,1.47,-1.68,0.94,2.42
9.122,1.31,-1.83,1.00,2.46
9.132,1.06,-1.84,1.03,2.36
9.142,0.68,-1.85,1.03,2.23
9.153,0.38,-1.86,0.89,2.09
9.163,0.27,-1.91,0.57,2.01
9.173,0.18,-1.88,0.33,1.92
9.183,-0.03,-1.78,0.35,1.82
9.193,-0.27,-1.76,0.60,1.88
9.203,-0.50,-1.65,0.76,1.88
9.213,-0.56,-1.36,0.65,1.61
9.223,-0.50,-1.27,0.40,1.43
9.233,-0.35,-1.41,0.22,1.47
9.243,-0.07,-1.61,0.14,1.62
9.253,0.13,-1.92,0.27,1.94
9.263,0.17,-2.32,0.57,2.40
9.273,0.21,-2.43,0.48,2.49
9.283,0.28,-2.23,0.33,2.27
9.293,0.28,-1.99,0.29,2.03
9.304,0.22,-1.68,0.53,1.78
9.313,0.35,-1.45,1.08,1.84
9.324,0.72,-1.29,1.56,2.15
9.334,1.10,-1.24,1.71,2.38
9.344,1.39,-1.45,1.75,2.66
9.354,1.59,-1.79,1.87,3.03
9.364,1.66,-2.14,1.87,3.29
9.374,1.76,-2.36,1.65,3.38
9.384,1.83,-2.51,1.49,3.45
9.394,1.87,-2.50,1.47,3.45
9.404,2.10,-2.08,1.39,3.27
9.414,1.84,-0.85,-0.01,2.02
9.424,1.48,1.05,-0.12,1.82
9.434,1.07,3.58,-0.01,3.73
9.444,-0.54,4.75,-0.46,4.81
9.454,-2.36,5.73,-2.80,6.80
9.464,-3.00,9.11,-4.40,10.55
9.475,-2.73,13.61,-5.41,14.90
9.484,-3.67,14.99,-5.25,16.30
9.495,-4.89,10.13,-2.75,11.58
9.505,-3.00,4.92,-0.46,5.78
9.515,-0.93,2.65,-0.10,2.81
9.525,-0.37,1.44,0.48,1.57
9.535,0.23,0.93,2.18,2.38
9.545,0.64,1.11,3.88,4.09
9.555,1.26,1.97,4.26,4.86
9.565,1.95,2.79,3.24,4.70
9.575,1.87,2.81,1.57,3.73
9.585,1.14,2.14,0.13,2.43
9.595,0.12,1.04,-0.48,1.15
9.605,-0.57,-0.19,-0.50,0.79
9.615,-0.74,-1.38,-0.49,1.64
9.625,-0.89,-2.29,-0.54,2.52
9.635,-1.15,-2.56,-0.65,2.88
9.645,-1.20,-2.49,-0.81,2.88
9.655,-1.00,-2.26,-1.08,2.69
9.665,-0.66,-1.90,-1.43,2.47
9.676,-0.07,-1.48,-1.70,2.26
9.686,0.55,-1.13,-1.67,2.09
9.695,0.86,-1.09,-1.38,1.96
9.706,1.09,-1.26,-0.92,1.90
9.716,1.10,-1.62,-0.53,2.03
9.726,1.00,-2.01,-0.30,2.27
9.736,0.95,-2.34,-0.16,2.53
9.746,1.09,-2.44,0.04,2.68
9.756,1.42,-2.15,0.19,2.58
9.766,1.75,-1.53,0.19,2.33
9.776,1.94,-0.79,0.09,2.10
9.786,1.95,-0.11,-0.00,1.95
9.796,1.84,0.48,0.03,1.90
9.806,1.65,0.91,0.20,1.90
9.816,1.34,0.99,0.31,1.69
9.826,0.88,0.67,0.51,1.22
9.836,0.43,0.12,0.79,0.91
9.846,0.17,-0.46,0.92,1.05
9.856,0.10,-0.88,0.88,1.25
9.867,0.15,-1.17,0.98,1.53
9.877,0.25,-1.19,0.99,1.57
9.887,0.35,-0.87,0.84,1.26
9.897,0.34,-0.34,0.63,0.79
9.907,0.19,0.09,0.41,0.46
9.917,0.11,0.29,0.22,0.37
9.927,0.13,0.25,0.15,0.32
9.937,0.32,0.03,0.39,0.51
9.947,0.62,-0.31,0.80,1.05
9.957,0.80,-0.45,1.03,1.38
9.967,0.91,-0.18,0.95,1.33
9.977,0.96,0.22,0.69,1.20
9.987,0.87,0.45,0.69,1.20
9.997,0.72,0.43,1.05,1.35
10.007,0.66,0.33,1.30,1.50
10.017,0.67,0.30,1.47,1.64
10.027,0.67,0.42,1.56,1.75
10.038,0.72,0.59,1.60,1.85
10.048,0.77,0.72,1.63,1.94
10.058,0.79,0.89,1.71,2.09
10.068,0.96,1.18,1.77,2.34
10.078,1.33,1.58,1.87,2.78
10.088,1.84,1.97,2.08,3.40
10.098,2.30,2.24,1.98,3.77
10.108,2.32,2.36,1.48,3.62
10.118,2.18,2.34,0.89,3.32
10.128,1.97,2.47,0.37,3.19
10.138,1.46,2.67,-0.23,3.06
10.148,0.64,2.80,-0.87,3.00
10.158,-0.22,2.74,-1.47,3.12
10.168,-1.16,2.50,-1.98,3.39
10.178,-2.10,2.05,-2.57,3.90
10.188,-2.77,1.12,-3.19,4.37
10.198,-3.21,-0.05,-3.30,4.61
10.209,-3.27,-1.32,-3.03,4.65
10.219,-3.18,-2.47,-2.67,4.83
10.229,-2.75,-3.02,-2.22,4.65
10.239,-2.08,-3.23,-1.74,4.22
10.249,-1.29,-3.03,-1.31,3.54
10.259,-0.68,-2.06,-1.11,2.44
10.269,-0.23,-0.82,-1.02,1.33
10.279,0.24,0.11,-1.03,1.06
10.289,0.56,0.61,-1.09,1.37
10.299,0.48,0.88,-1.06,1.46
10.309,0.15,1.04,-0.85,1.35
10.319,-0.29,1.16,-0.55,1.32
10.329,-0.60,1.19,-0.29,1.36
10.339,-0.70,1.31,-0.06,1.48
10.349,-0.53,1.59,-0.00,1.68
10.360,-0.16,1.78,-0.15,1.80
10.370,0.03,1.52,-0.34,1.56
10.379,0.10,0.87,-0.41,0.97
10.390,0.20,0.15,-0.31,0.40
10.400,0.25,-0.44,-0.24,0.56
10.410,0.21,-0.87,-0.13,0.90
10.420,0.17,-1.28,-0.03,1.29
10.430,0.09,-1.59,-0.04,1.60
10.440,0.04,-1.75,-0.06,1.75
10.450,0.08,-1.75,0.05,1.75
10.460,-0.00,-1.63,0.05,1.63
10.470,-0.22,-1.50,0.00,1.51
10.480,-0.58,-1.37,-0.04,1.49
10.490,-0.98,-1.22,-0.12,1.56
10.500,-1.30,-1.07,-0.01,1.68
10.510,-1.51,-0.93,0.30,1.80
10.520,-1.55,-0.82,0.47,1.82
10.530,-1.36,-0.79,0.48,1.64
10.540,-1.08,-0.92,0.44,1.49
10.550,-0.80,-1.17,0.56,1.53
10.561,-0.40,-1.43,0.70,1.64
10.571,0.08,-1.58,0.80,1.77
10.581,0.51,-1.65,0.95,1.97
10.591,0.88,-1.75,1.11,2.25
10.601,1.25,-1.76,1.13,2.44
10.611,1.49,-1.64,1.13,2.49
10.621,1.57,-1.57,1.17,2.51
10.631,1.43,-1.48,1.17,2.37
10.641,1.03,-1.25,0.86,1.83
10.651,0.63,-0.96,0.70,1.35
10.661,0.33,-0.59,0.74,1.00
10.671,0.14,-0.16,0.99,1.01
10.681,-0.03,0.13,1.01,1.01
10.691,-0.02,0.14,1.02,1.03
10.701,0.08,0.12,0.77,0.78
10.711,0.08,0.07,0.65,0.66
10.722,-0.00,0.11,0.61,0.62
10.732,-0.14,0.22,0.78,0.83
10.742,-0.01,0.35,1.22,1.27
10.752,0.47,0.41,1.76,1.86
10.762,1.34,0.51,2.14,2.58
10.772,2.28,0.74,2.20,3.25
10.782,2.95,1.09,2.04,3.75
10.792,3.40,1.80,1.66,4.19
10.802,3.42,3.18,1.11,4.80
10.812,2.92,4.67,0.96,5.59
10.822,2.02,5.80,0.89,6.20
10.832,0.50,6.08,0.41,6.12
10.842,-1.55,5.08,-0.06,5.31
10.852,-3.05,3.35,-0.23,4.54
10.862,-3.51,2.20,-0.23,4.15
10.872,-3.46,1.50,0.16,3.77
10.883,-2.91,0.76,0.67,3.08
10.893,-1.98,-0.16,0.96,2.21
10.903,-1.00,-1.12,0.72,1.67
10.913,-0.32,-1.86,0.11,1.89
10.923,0.05,-2.38,-0.73,2.49
10.933,0.33,-2.62,-1.48,3.03
10.943,0.38,-2.60,-2.31,3.50
10.953,0.04,-2.40,-2.90,3.77
10.963,-0.60,-1.93,-2.93,3.56
10.973,-1.44,-1.01,-2.58,3.12
10.983,-2.12,-0.10,-2.27,3.11
10.993,-2.63,0.59,-2.08,3.40
11.003,-2.73,0.96,-1.94,3.48
11.013,-2.42,0.96,-1.82,3.18
11.023,-1.96,0.65,-1.66,2.65
11.033,-1.43,0.31,-1.44,2.05
11.044,-0.90,-0.05,-1.05,1.38
11.053,-0.42,-0.35,-0.66,0.86
11.063,-0.14,-0.46,-0.43,0.64
11.074,0.01,-0.65,-0.26,0.70
11.084,0.04,-0.87,-0.25,0.91
11.094,0.10,-0.88,-0.36,0.96
11.104,0.15,-0.90,-0.52,1.05
11.114,0.22,-0.93,-0.57,1.11
11.124,0.33,-0.87,-0.56,1.08
11.134,0.49,-0.88,-0.55,1.15
11.144,0.58,-0.92,-0.64,1.26
11.154,0.66,-0.87,-0.63,1.26
11.164,0.64,-0.83,-0.49,1.16
11.174,0.67,-0.81,-0.51,1.17
11.184,0.76,-0.79,-0.54,1.23
11.194,0.65,-0.76,-0.43,1.09
11.204,0.42,-0.71,-0.29,0.88
11.214,0.16,-0.66,-0.13,0.69
11.224,0.01,-0.62,-0.02,0.62
11.234,0.02,-0.58,0.05,0.58
11.244,0.03,-0.53,0.02,0.53
11.255,0.07,-0.55,-0.14,0.57
11.265,0.16,-0.47,-0.24,0.55
11.275,0.34,-0.44,-0.34,0.65
11.285,0.36,-0.56,-0.31,0.74
11.295,0.29,-0.64,-0.23,0.74
11.305,0.10,-0.66,-0.16,0.68
11.315,-0.16,-0.65,-0.27,0.73
11.325,-0.30,-0.77,-0.52,0.98
11.335,-0.30,-1.03,-0.51,1.19
11.345,-0.29,-1.28,-0.16,1.33
11.355,-0.19,-1.46,0.20,1.48
11.365,0.10,-1.50,0.27,1.53
11.375,0.47,-1.45,0.07,1.53
11.385,0.72,-1.39,-0.36,1.61
11.395,0.89,-1.33,-0.76,1.78
11.405,0.90,-1.38,-0.95,1.90
11.416,0.68,-1.54,-0.95,1.94
11.426,0.40,-1.72,-0.80,1.93
11.436,0.12,-1.89,-0.48,1.96
11.446,-0.05,-2.14,-0.09,2.14
11.456,-0.01,-2.29,0.39,2.32
11.466,0.25,-2.40,0.74,2.52
11.476,0.62,-2.36,0.79,2.56
11.486,1.08,-1.96,0.63,2.32
11.496,1.43,-1.32,0.43,1.99
11.506,1.54,-0.95,0.32,1.84
11.516,1.50,-0.90,0.21,1.76
11.526,1.31,-0.91,0.15,1.60
11.536,1.17,-0.85,0.05,1.45
11.548,1.04,-0.91,0.08,1.38
11.556,0.84,-1.03,0.06,1.33
11.566,0.66,-1.10,-0.18,1.29
11.576,0.48,-1.32,-0.31,1.44
11.586,0.44,-1.62,-0.06,1.68
11.597,0.71,-1.85,0.53,2.05
11.607,1.28,-2.05,1.06,2.64
11.617,2.02,-2.11,0.98,3.08
11.627,2.65,-2.12,0.49,3.44
11.637,2.46,-1.81,-0.33,3.07
11.647,2.17,-1.25,-0.33,2.53
11.657,2.85,-0.88,0.66,3.06
11.667,3.65,0.08,-0.04,3.65
11.677,1.54,3.35,-1.93,4.16
11.687,-0.81,6.70,-3.41,7.56
11.697,-2.09,8.32,-3.62,9.31
11.707,-3.98,8.46,-3.81,10.09
11.717,-6.68,8.10,-4.06,11.26
11.727,-8.54,7.63,-2.06,11.64
11.737,-7.92,6.77,1.19,10.49
11.748,-5.80,6.52,1.40,8.84
11.757,-4.99,6.79,-0.55,8.45
11.768,-3.31,6.68,-2.25,7.79
11.778,-1.30,5.90,-2.39,6.50
11.788,0.23,4.61,-1.68,4.92
11.798,1.72,3.42,-0.79,3.91
11.808,2.25,2.28,-0.04,3.21
11.818,2.11,1.32,0.28,2.51
11.828,1.57,0.68,0.29,1.74
11.838,0.69,0.33,0.11,0.77
11.848,-0.02,0.21,-0.08,0.22
11.858,-0.40,0.17,-0.12,0.45
11.868,-0.67,0.13,0.01,0.68
11.878,-0.83,-0.16,0.09,0.85
11.888,-0.93,-0.75,0.13,1.20
11.898,-1.02,-1.34,0.14,1.69
11.908,-0.95,-1.84,0.16,2.08
11.918,-0.67,-2.25,0.00,2.35
11.929,-0.49,-2.48,-0.33,2.55
11.938,-0.33,-2.64,-0.61,2.73
11.949,-0.31,-2.75,-0.74,2.86
11.959,-0.46,-2.75,-0.66,2.86
11.969,-0.64,-2.63,-0.62,2.77
11.979,-0.80,-2.44,-0.53,2.62
11.989,-0.99,-2.26,-0.39,2.50
11.999,-1.17,-2.08,-0.30,2.41
12.009,-1.38,-2.00,-0.38,2.46
12.019,-1.60,-2.01,-0.43,2.61
12.029,-1.59,-2.11,-0.32,2.66
12.039,-1.43,-2.13,-0.09,2.57
12.049,-1.26,-1.96,0.21,2.34
12.059,-1.03,-1.62,0.39,1.96
12.069,-0.64,-1.26,0.33,1.45
12.079,-0.29,-1.04,0.19,1.10
12.089,-0.03,-0.94,0.08,0.95
12.100,0.16,-0.88,-0.07,0.89
12.109,0.20,-0.88,0.01,0.90
12.119,0.18,-1.02,0.37,1.10
12.130,0.32,-1.40,0.43,1.50
12.140,0.68,-1.90,0.38,2.05
12.150,0.97,-2.31,0.27,2.52
12.160,1.14,-2.63,0.18,2.87
12.170,1.21,-2.91,-0.02,3.15
12.180,1.18,-3.14,-0.40,3.38
12.190,1.03,-3.42,-0.54,3.61
12.200,0.62,-3.62,-0.45,3.70
12.210,0.15,-3.70,-0.07,3.70
12.220,-0.25,-3.41,0.57,3.47
12.230,-0.54,-2.82,0.99,3.04
12.240,-0.76,-2.04,1.00,2.40
12.250,-0.73,-1.34,0.61,1.64
12.260,-0.41,-0.93,-0.03,1.01
12.270,-0.07,-0.77,-0.58,0.97
12.280,0.23,-0.81,-0.78,1.15
12.290,0.42,-0.92,-0.72,1.24
12.301,0.47,-1.12,-0.35,1.27
12.311,0.38,-1.31,0.22,1.38
12.321,0.25,-1.30,0.54,1.43
12.331,0.26,-1.35,0.76,1.57
12.341,0.27,-1.55,1.05,1.89
12.351,0.08,-1.77,1.26,2.17
12.361,0.09,-1.82,0.97,2.07
12.371,0.75,-1.73,0.71,2.02
12.381,1.21,-1.14,0.35,1.70
12.391,0.86,-0.12,0.03,0.87
12.401,1.15,1.53,0.08,1.92
12.411,0.89,3.52,0.12,3.64
12.421,-1.30,4.86,-0.55,5.06
12.432,-3.07,6.34,-1.96,7.31
12.441,-3.70,7.69,-2.15,8.80
12.451,-2.93,9.16,-3.66,10.29
12.462,-1.97,9.85,-3.83,10.75
12.472,-2.22,7.39,-0.84,7.76
12.482,-1.74,4.10,1.05,4.57
12.492,-0.15,2.38,1.28,2.71
12.502,1.21,1.44,1.49,2.40
12.512,1.84,0.67,2.09,2.87
12.522,1.94,0.93,2.59,3.37
12.532,1.63,2.28,2.52,3.77
12.542,1.06,3.80,1.88,4.37
12.552,0.21,4.50,1.09,4.63
12.562,-0.44,4.49,0.36,4.53
12.572,-0.83,4.28,-0.19,4.36
12.582,-0.86,3.59,-0.32,3.71
12.592,-0.54,2.62,-0.16,2.68
12.602,-0.27,1.53,-0.02,1.56
12.612,0.04,0.55,-0.09,0.55
12.622,0.53,-0.09,-0.10,0.54
12.632,0.79,-0.30,-0.10,0.85
12.643,0.79,-0.55,-0.15,0.97
12.652,0.76,-0.76,-0.27,1.10
12.663,0.57,-0.88,-0.32,1.10
12.673,0.44,-1.26,-0.38,1.38
12.683,0.44,-1.87,-0.30,1.94
12.693,0.55,-2.37,-0.17,2.43
12.703,0.78,-2.55,-0.13,2.67
12.713,0.96,-2.40,-0.22,2.59
12.723,1.01,-2.20,-0.55,2.48
12.733,1.06,-1.92,-0.91,2.38
12.743,1.00,-1.52,-1.08,2.11
12.753,0.91,-1.04,-1.15,1.80
12.763,0.80,-0.59,-1.16,1.53
12.773,0.70,-0.25,-1.05,1.28
12.783,0.60,-0.16,-0.87,1.07
12.793,0.40,-0.38,-0.65,0.85
12.803,0.23,-0.83,-0.27,0.91
12.813,0.23,-1.20,0.15,1.23
12.824,0.26,-1.43,0.47,1.53
12.834,0.33,-1.59,0.73,1.78
12.844,0.41,-1.64,0.83,1.89
12.854,0.48,-1.59,0.77,1.83
12.864,0.50,-1.60,0.78,1.85
12.874,0.58,-1.72,0.75,1.96
12.884,0.80,-1.78,0.68,2.07
12.894,1.13,-1.73,0.60,2.15
12.904,1.38,-1.68,0.33,2.20
12.914,1.39,-1.69,-0.07,2.19
12.924,1.28,-1.66,-0.14,2.10
12.934,1.16,-1.55,0.10,1.94
12.944,0.95,-1.52,0.27,1.81
12.954,0.62,-1.79,0.01,1.89
12.964,0.41,-2.24,-0.57,2.35
12.974,0.30,-2.67,-1.03,2.88
12.984,0.14,-3.06,-1.14,3.27
12.995,0.00,-3.32,-0.76,3.41
13.005,0.06,-3.50,-0.10,3.50
13.015,0.35,-3.50,0.56,3.56
13.025,0.76,-3.21,0.81,3.40
13.035,1.06,-2.52,0.62,2.81
13.045,1.20,-1.84,0.39,2.22
13.055,1.19,-1.32,0.14,1.78
13.065,1.19,-1.16,0.00,1.66
13.075,1.45,-1.25,-0.04,1.91
13.085,1.84,-1.36,-0.10,2.29
13.095,1.99,-1.49,-0.16,2.49
13.105,1.56,-1.64,-0.65,2.35
13.115,0.47,-1.97,-1.18,2.35
13.125,-0.60,-2.22,-1.12,2.56
13.135,-1.49,-1.86,-0.37,2.41
13.145,-2.52,-0.72,-0.32,2.64
13.155,-3.74,0.77,-1.28,4.02
13.165,-3.87,2.06,-1.51,4.64
13.176,-2.98,3.24,-0.74,4.46
13.186,-2.62,5.04,0.01,5.68
13.196,-2.67,7.44,0.48,7.92
13.206,-2.30,10.23,0.75,10.51
13.216,-1.48,12.39,0.64,12.49
13.226,-0.62,12.73,-0.02,12.75
13.236,0.18,11.07,-0.73,11.09
13.246,0.68,8.52,-1.43,8.67
13.256,1.31,6.32,-1.26,6.57
13.266,1.51,4.21,-0.27,4.49
13.276,1.08,2.27,0.48,2.56
13.286,0.60,0.93,0.79,1.36
13.296,0.08,0.13,0.81,0.83
13.306,-0.49,-0.22,0.68,0.87
13.316,-0.77,-0.27,0.55,0.98
13.326,-0.84,-0.06,0.43,0.95
13.337,-0.71,0.00,0.25,0.76
13.347,-0.39,-0.22,0.24,0.51
13.357,-0.07,-0.61,0.36,0.71
13.367,0.21,-1.01,0.41,1.11
13.377,0.21,-1.37,0.34,1.43
13.387,0.07,-1.79,0.12,1.80
13.397,-0.03,-2.29,-0.16,2.29
13.407,-0.06,-2.74,-0.34,2.76
13.417,-0.06,-3.06,-0.45,3.10
13.427,-0.04,-3.26,-0.51,3.30
13.437,-0.07,-3.29,-0.53,3.34
13.447,-0.33,-3.14,-0.51,3.20
13.457,-0.77,-2.91,-0.53,3.05
13.467,-1.26,-2.69,-0.56,3.03
13.477,-1.67,-2.46,-0.54,3.02
13.487,-1.94,-2.26,-0.48,3.01
13.497,-1.98,-2.08,-0.28,2.88
13.507,-1.79,-1.85,-0.16,2.58
13.517,-1.43,-1.57,-0.05,2.12
13.527,-0.98,-1.31,0.10,1.64
13.538,-0.53,-1.09,0.22,1.23
13.548,-0.07,-1.01,0.24,1.04
13.558,0.36,-1.20,0.14,1.26
13.568,0.64,-1.62,0.04,1.74
13.578,0.72,-2.14,-0.01,2.26
13.588,0.56,-2.62,0.01,2.68
13.598,0.21,-2.81,0.13,2.82
13.608,-0.14,-2.68,0.23,2.69
13.618,-0.31,-2.62,0.23,2.64
13.628,-0.40,-2.72,0.40,2.78
13.638,-0.48,-2.69,0.56,2.79
13.648,-0.40,-2.52,0.57,2.61
13.658,-0.31,-2.34,0.60,2.44
13.668,-0.27,-2.16,0.42,2.22
13.678,-0.30,-1.97,0.20,2.00
13.689,-0.41,-1.94,0.13,1.99
13.698,-0.57,-2.03,0.30,2.13
13.708,-0.69,-2.00,0.63,2.21
13.719,-0.69,-1.83,0.90,2.15
13.729,-0.54,-1.67,1.05,2.04
13.739,-0.35,-1.53,1.25,2.01
13.749,-0.19,-1.47,1.48,2.09
13.759,0.18,-1.54,1.40,2.08
13.769,0.67,-1.90,1.30,2.40
13.779,1.08,-2.07,1.10,2.58
13.789,1.05,-1.48,0.05,1.81
13.799,0.84,-0.32,-1.40,1.66
13.809,0.95,1.51,-1.62,2.41
13.819,0.39,2.91,-1.02,3.11
13.829,-0.93,3.12,-1.53,3.60
13.839,-1.71,4.12,-2.42,5.08
13.849,-2.08,5.80,-1.52,6.35
13.860,-1.72,6.24,0.07,6.48
13.869,-0.72,5.55,0.99,5.68
13.880,0.83,5.94,-0.14,6.00
13.890,2.27,7.48,-0.94,7.87
13.900,2.18,7.60,0.30,7.91
13.910,1.00,5.99,1.37,6.23
13.920,0.59,4.37,1.10,4.54
13.930,0.67,3.60,0.90,3.77
13.940,0.70,3.92,1.17,4.15
13.950,0.46,4.65,1.37,4.87
13.960,0.17,4.87,1.43,5.08
13.970,-0.10,4.41,1.21,4.58
13.980,-0.18,3.67,0.77,3.75
13.990,-0.12,2.88,0.26,2.89
14.000,-0.25,2.27,-0.18,2.29
14.010,-0.48,1.65,-0.41,1.76
14.020,-0.50,0.77,-0.46,1.02
14.030,-0.43,0.14,-0.41,0.61
14.040,-0.27,-0.27,-0.42,0.56
14.051,-0.03,-0.77,-0.51,0.93
14.061,0.12,-1.27,-0.55,1.39
14.071,0.22,-1.67,-0.43,1.74
14.081,0.50,-2.00,-0.36,2.10
14.091,0.77,-2.26,-0.45,2.43
14.101,0.85,-2.43,-0.62,2.65
14.111,0.88,-2.54,-0.74,2.79
14.121,0.79,-2.56,-0.87,2.81
14.131,0.72,-2.54,-0.90,2.79
14.141,0.74,-2.46,-0.85,2.70
14.151,0.80,-2.18,-0.90,2.49
14.161,0.88,-1.86,-0.95,2.27
14.171,0.90,-1.52,-1.00,2.03
14.181,0.89,-1.10,-0.96,1.71
14.191,0.80,-0.74,-1.00,1.48
14.201,0.59,-0.56,-0.96,1.26
14.212,0.33,-0.70,-0.73,1.06
14.222,0.14,-1.05,-0.58,1.21
14.232,0.04,-1.47,-0.50,1.55
14.242,-0.03,-1.98,-0.50,2.04
14.252,-0.03,-2.50,-0.47,2.54
14.262,0.07,-2.83,-0.38,2.85
14.272,0.31,-2.82,-0.24,2.84
14.282,0.69,-2.50,-0.05,2.59
14.292,1.11,-2.19,0.12,2.46
14.302,1.38,-2.20,0.24,2.61
14.312,1.46,-2.24,0.34,2.70
14.322,1.55,-1.78,0.09,2.36
14.332,1.54,-0.99,-0.30,1.86
14.342,1.40,-0.34,-0.39,1.49
14.352,1.15,-0.16,-0.15,1.17
14.362,0.67,-0.63,0.16,0.93
14.372,0.21,-1.34,0.54,1.46
14.383,0.15,-1.67,0.65,1.80
14.392,0.40,-1.73,0.47,1.83
14.403,0.80,-1.55,0.19,1.76
14.413,1.06,-1.50,0.29,1.86
14.423,1.13,-1.64,0.84,2.16
14.433,1.24,-1.70,1.23,2.44
14.443,1.49,-1.77,1.26,2.63
14.453,1.95,-1.74,1.08,2.83
14.463,2.32,-1.68,0.87,2.99
14.473,2.48,-1.65,0.76,3.08
14.483,2.42,-1.64,0.68,3.00
14.493,2.30,-1.72,0.40,2.90
14.503,2.12,-1.78,-0.02,2.77
14.513,1.62,-1.80,-0.37,2.45
14.523,1.18,-1.82,-0.98,2.38
14.533,0.75,-1.77,-1.28,2.31
14.543,-0.31,-1.09,-1.40,1.80
14.553,-2.07,0.35,-2.13,2.99
14.564,-3.61,1.75,-2.57,4.76
14.573,-4.16,2.73,-2.15,5.42
14.583,-4.03,4.12,-1.81,6.04
14.594,-4.34,6.02,-1.86,7.65
14.604,-4.72,7.71,-1.39,9.14
14.614,-4.57,9.03,0.07,10.12
14.624,-3.82,9.61,1.72,10.48
14.634,-2.42,9.32,1.76,9.79
14.644,-1.03,8.42,0.26,8.49
14.654,0.17,7.09,-0.94,7.16
14.664,1.09,5.32,-1.03,5.53
14.674,1.58,3.71,-0.30,4.04
14.684,1.39,2.33,0.53,2.76
14.694,1.24,1.26,1.07,2.07
14.704,0.86,0.56,1.15,1.54
14.714,0.32,0.25,0.95,1.03
14.724,-0.17,0.15,0.59,0.63
14.734,-0.46,0.04,0.26,0.53
14.745,-0.70,-0.11,0.08,0.71
14.755,-0.75,-0.50,0.08,0.91
14.765,-0.75,-1.04,0.18,1.29
14.775,-0.69,-1.54,0.29,1.71
14.785,-0.60,-2.05,0.28,2.15
14.795,-0.52,-2.53,0.13,2.59
14.805,-0.52,-2.90,-0.06,2.94
14.815,-0.52,-3.14,-0.21,3.19
14.825,-0.42,-3.38,-0.38,3.43
14.835,-0.39,-3.50,-0.53,3.56
14.845,-0.48,-3.47,-0.56,3.55
14.855,-0.75,-3.32,-0.60,3.46
14.865,-1.14,-3.11,-0.66,3.38
14.875,-1.51,-2.94,-0.62,3.36
14.885,-1.70,-2.81,-0.57,3.33
14.895,-1.73,-2.61,-0.51,3.17
14.905,-1.60,-2.37,-0.35,2.88
14.916,-1.40,-2.03,-0.13,2.47
14.926,-1.06,-1.69,0.13,2.00
14.936,-0.64,-1.55,0.57,1.77
14.946,-0.11,-1.57,0.48,1.64
14.956,0.46,-1.71,0.26,1.79
14.966,0.91,-2.05,0.43,2.28
14.976,1.22,-2.29,0.56,2.65
14.986,1.38,-2.42,0.65,2.86
14.996,1.13,-2.58,1.06,3.01
15.006,0.82,-2.45,1.15,2.83
15.016,0.63,-2.03,0.85,2.29
15.026,0.60,-1.78,0.53,1.95
15.036,0.62,-1.86,0.41,2.00
15.046,0.60,-2.13,0.39,2.24
15.056,0.48,-2.38,0.46,2.47
15.066,0.24,-2.55,0.49,2.61
15.076,-0.34,-2.61,0.47,2.67
15.086,-0.83,-2.42,0.50,2.61
15.096,-0.84,-1.97,0.56,2.22
15.106,-0.67,-1.59,0.46,1.78
15.117,-0.51,-1.55,0.27,1.65
15.127,-0.35,-1.79,0.10,1.83
15.137,-0.16,-2.33,0.05,2.33
15.147,0.14,-2.83,0.17,2.84
15.157,0.50,-2.56,-0.47,2.65
15.167,-0.01,-1.71,-1.31,2.15
15.177,-0.19,-0.23,-0.81,0.86
15.187,-0.20,1.77,-0.55,1.86
15.197,-1.87,2.47,-1.22,3.33
15.207,-3.10,3.89,-2.17,5.43
15.217,-3.45,5.47,-1.65,6.67
15.227,-2.98,5.82,-0.39,6.55
15.237,-1.53,4.99,1.36,5.40
15.247,0.53,6.12,0.81,6.20
15.257,3.03,10.19,-0.58,10.65
15.267,3.47,12.46,0.54,12.94
15.278,2.04,9.69,1.49,10.01
15.288,1.55,5.82,1.28,6.16
15.298,1.88,3.40,1.40,4.13
15.308,1.76,2.24,1.73,3.33
15.318,1.44,2.56,1.93,3.51
15.328,0.92,3.35,2.29,4.16
15.338,0.45,3.52,2.23,4.19
15.348,0.11,3.38,1.67,3.77
15.358,0.07,3.35,0.99,3.50
15.368,-0.11,3.13,0.17,3.14
15.378,-0.51,2.46,-0.49,2.56
15.388,-0.78,1.61,-0.81,1.96
15.398,-0.81,0.88,-0.82,1.45
15.408,-0.64,0.43,-0.86,1.15
15.418,-0.49,0.19,-1.01,1.14
15.428,-0.29,-0.11,-1.11,1.15
15.439,-0.12,-0.53,-1.20,1.31
15.449,-0.05,-1.01,-1.15,1.53
15.459,0.12,-1.43,-1.01,1.76
15.469,0.33,-1.76,-0.88,1.99
15.479,0.46,-1.98,-0.69,2.15
15.489,0.54,-2.09,-0.59,2.24
15.499,0.56,-2.28,-0.66,2.44
15.509,0.56,-2.64,-0.86,2.83
15.519,0.56,-3.01,-1.10,3.25
15.529,0.54,-3.22,-1.28,3.50
15.539,0.53,-3.09,-1.37,3.42
15.549,0.54,-2.78,-1.32,3.12
15.559,0.46,-2.43,-1.33,2.81
15.569,0.28,-2.28,-1.42,2.70
15.579,0.06,-2.36,-1.47,2.78
15.589,-0.15,-2.45,-1.57,2.92
15.599,-0.27,-2.67,-1.42,3.04
15.609,-0.36,-2.86,-0.91,3.03
15.620,-0.35,-2.83,-0.18,2.86
15.630,-0.10,-2.46,0.25,2.47
15.640,0.32,-1.81,0.35,1.87
15.650,0.77,-1.16,0.24,1.41
15.660,1.05,-0.82,-0.02,1.33
15.670,0.99,-0.99,-0.21,1.42
15.680,0.71,-1.79,-0.40,1.96
15.690,0.53,-2.63,-0.32,2.70
15.700,0.65,-3.08,-0.21,3.16
15.710,0.65,-3.42,-0.08,3.48
15.720,0.71,-3.48,0.33,3.57
15.730,1.01,-2.69,0.73,2.97
15.740,1.58,-1.10,0.74,2.06
15.750,2.01,0.43,0.27,2.08
15.760,1.85,1.15,-0.36,2.21
15.771,1.25,0.88,-0.59,1.64
15.780,0.72,-0.15,-0.15,0.75
15.791,0.60,-1.35,0.62,1.60
15.801,0.87,-2.40,1.20,2.82
15.811,1.33,-2.83,1.38,3.42
15.821,1.84,-2.73,1.30,3.54
15.831,2.39,-2.44,0.91,3.54
15.841,2.50,-2.14,0.50,3.33
15.851,2.06,-1.73,0.24,2.70
15.861,1.33,-1.31,-0.04,1.86
15.871,0.67,-1.20,-0.16,1.38
15.881,0.10,-0.77,-0.39,0.87
15.891,-0.41,0.28,-0.25,0.56
15.901,-0.89,2.02,0.13,2.21
15.911,-1.28,4.06,0.06,4.26
15.921,-1.35,5.66,-0.10,5.82
15.931,-1.79,6.59,-0.44,6.84
15.941,-2.84,7.17,-0.82,7.76
15.951,-3.35,7.66,-1.41,8.48
15.962,-3.48,7.86,-1.74,8.77
15.972,-3.58,7.40,-1.20,8.31
15.982,-3.28,6.28,-0.08,7.09
15.992,-2.57,5.13,0.28,5.74
16.002,-1.86,4.40,-0.21,4.78
16.012,-0.96,3.98,-0.56,4.13
16.022,-0.14,3.63,-0.75,3.71
16.032,0.41,3.16,-0.77,3.28
16.042,0.68,2.49,-0.42,2.62
16.052,0.47,1.77,0.07,1.83
16.062,-0.12,1.05,0.42,1.14
16.072,-0.51,0.63,0.47,0.94
16.082,-0.66,0.50,0.38,0.91
16.092,-0.78,0.30,0.19,0.85
16.102,-0.71,0.08,-0.01,0.72
16.112,-0.62,-0.10,-0.09,0.63
16.122,-0.43,-0.43,-0.07,0.61
16.132,-0.22,-0.80,-0.05,0.83
16.143,-0.08,-1.07,-0.24,1.10
16.153,0.03,-1.35,-0.49,1.44
16.163,0.08,-1.66,-0.63,1.78
16.173,0.06,-1.98,-0.65,2.08
16.183,0.02,-2.25,-0.62,2.34
16.193,-0.08,-2.40,-0.59,2.47
16.203,-0.31,-2.44,-0.55,2.51
16.213,-0.57,-2.49,-0.55,2.61
16.223,-0.84,-2.59,-0.45,2.76
16.233,-0.94,-2.72,-0.25,2.89
16.243,-0.93,-2.77,-0.05,2.93
16.253,-0.91,-2.80,0.09,2.95
16.263,-0.82,-2.82,0.14,2.94
16.273,-0.68,-2.89,0.10,2.97
16.283,-0.54,-3.04,0.11,3.09
16.293,-0.40,-3.19,0.14,3.22
16.303,-0.15,-3.24,0.08,3.24
16.313,0.13,-3.12,0.07,3.12
16.324,0.33,-2.83,0.25,2.86
16.334,0.51,-2.41,0.38,2.49
16.344,0.68,-1.99,0.47,2.16
16.354,0.83,-1.65,0.29,1.87
16.364,1.02,-1.62,-0.13,1.92
16.374,1.19,-2.08,-0.51,2.45
16.384,1.16,-2.63,-0.50,2.91
16.394,0.89,-3.10,-0.25,3.23
16.404,0.44,-3.35,-0.13,3.38
16.414,-0.07,-3.28,-0.12,3.28
16.424,-0.67,-2.89,-0.02,2.97
16.434,-1.13,-2.35,0.23,2.62
16.444,-1.42,-1.91,0.56,2.45
16.454,-1.60,-1.63,0.83,2.43
16.464,-1.70,-1.48,0.97,2.46
16.474,-1.57,-1.31,1.07,2.31
16.484,-1.12,-0.89,1.18,1.86
16.494,-0.59,-0.30,1.15,1.33
16.505,-0.16,0.32,0.92,0.99
16.515,0.07,0.62,0.60,0.87
16.525,0.30,0.35,0.14,0.48
16.535,0.62,-0.52,0.18,0.83
16.545,0.85,-1.52,0.58,1.83
16.555,0.95,-2.25,0.76,2.56
16.565,1.00,-2.02,0.49,2.31
16.575,0.36,-0.75,-0.27,0.87
16.585,-0.00,1.06,0.07,1.06
16.595,0.47,3.26,-0.07,3.29
16.605,-0.09,3.75,-0.15,3.76
16.615,-1.07,3.75,-0.76,3.98
16.625,-1.29,4.87,-1.43,5.24
16.635,-1.25,5.38,-0.97,5.61
16.646,-1.02,4.46,-0.15,4.58
16.656,-0.55,3.06,1.18,3.33
16.666,0.57,3.65,0.76,3.77
16.676,2.09,5.79,0.21,6.16
16.686,2.40,7.31,0.87,7.74
16.696,1.38,6.98,1.08,7.19
16.706,0.67,5.25,0.89,5.37
16.716,0.75,3.63,0.89,3.81
16.726,0.83,2.95,1.07,3.25
16.736,0.75,3.08,1.13,3.36
16.746,0.26,3.31,1.35,3.58
16.756,-0.08,3.50,1.39,3.77
16.766,-0.09,3.54,1.25,3.75
16.776,-0.02,3.25,0.77,3.34
16.786,-0.07,2.70,0.12,2.71
16.796,-0.32,1.88,-0.40,1.95
16.806,-0.52,0.92,-0.72,1.28
16.817,-0.58,0.05,-0.69,0.90
16.826,-0.31,-0.37,-0.53,0.71
16.837,0.01,-0.62,-0.55,0.82
16.846,0.29,-0.80,-0.69,1.09
16.857,0.45,-1.04,-0.77,1.37
16.867,0.55,-1.36,-0.87,1.71
16.877,0.64,-1.58,-0.98,1.96
16.887,0.70,-1.63,-1.10,2.08
16.897,0.70,-1.55,-1.17,2.06
16.907,0.69,-1.57,-1.18,2.08
16.917,0.64,-1.59,-1.09,2.03
16.927,0.53,-1.68,-0.92,1.99
16.937,0.46,-1.80,-0.79,2.02
16.947,0.45,-1.82,-0.72,2.01
16.957,0.41,-1.70,-0.73,1.90
16.967,0.37,-1.47,-0.75,1.69
16.977,0.34,-1.17,-0.77,1.44
16.987,0.25,-0.99,-0.86,1.33
16.997,0.00,-1.08,-0.90,1.40
17.007,-0.22,-1.43,-0.74,1.62
17.018,-0.23,-1.76,-0.54,1.85
17.028,-0.15,-2.01,-0.43,2.06
17.038,-0.06,-2.27,-0.37,2.30
17.048,-0.07,-2.53,-0.40,2.56
17.058,-0.14,-2.68,-0.42,2.71
17.068,-0.10,-2.56,-0.25,2.57
17.078,0.11,-2.22,-0.07,2.22
17.088,0.32,-1.82,0.05,1.85
17.098,0.42,-1.63,0.11,1.69
17.108,0.32,-1.84,0.15,1.87
17.118,0.15,-2.26,0.18,2.27
17.128,0.11,-2.45,0.14,2.46
17.138,0.30,-2.35,-0.09,2.38
17.148,0.73,-2.01,-0.33,2.16
17.158,1.07,-1.49,-0.33,1.86
17.168,1.23,-0.96,-0.12,1.57
17.178,1.34,-0.61,0.08,1.47
17.189,1.50,-0.26,0.13,1.53
17.199,1.73,-0.05,0.46,1.80
17.209,1.98,-0.09,1.08,2.25
17.219,2.06,-0.53,1.53,2.61
17.229,2.00,-0.93,1.60,2.73
17.239,1.89,-1.03,1.41,2.57
17.249,1.81,-0.95,1.37,2.46
17.259,1.70,-0.77,1.27,2.25
17.269,1.58,-0.77,0.96,2.00
17.279,1.36,-0.86,0.65,1.73
17.289,1.13,-1.05,0.59,1.65
17.299,1.07,-1.23,0.47,1.69
17.309,1.04,-1.27,0.35,1.68
17.319,1.08,-1.15,0.40,1.63
17.329,1.12,-0.98,0.59,1.60
17.339,1.24,-0.84,0.82,1.71
17.349,1.36,-0.33,0.38,1.46
17.359,1.19,0.37,-0.38,1.30
17.370,0.25,0.86,-1.24,1.53
17.379,-1.19,1.13,-1.99,2.58
17.390,-2.30,1.35,-1.96,3.31
17.400,-2.79,1.77,-1.38,3.58
17.410,-3.09,2.56,-1.09,4.16
17.420,-3.44,3.58,-1.09,5.08
17.430,-3.49,4.46,-1.25,5.80
17.440,-3.45,5.11,-0.69,6.20
17.450,-2.79,5.55,0.69,6.25
17.460,-1.10,5.90,1.30,6.14
17.470,0.28,6.29,0.65,6.33
17.480,0.96,6.56,-0.36,6.64
17.490,1.45,6.13,-0.79,6.35
17.500,1.50,4.86,-0.26,5.09
17.510,1.20,3.33,0.74,3.62
17.520,0.93,1.96,1.55,2.67
17.530,0.43,1.04,1.81,2.14
17.540,-0.16,0.70,1.75,1.89
17.550,-0.44,0.71,1.49,1.71
17.561,-0.37,0.90,1.06,1.44
17.571,-0.14,0.98,0.57,1.14
17.581,0.03,0.86,0.26,0.90
17.591,0.13,0.52,0.04,0.54
17.601,0.23,-0.03,-0.07,0.25
17.611,0.11,-0.62,-0.08,0.63
17.621,-0.17,-1.17,0.01,1.19
17.631,-0.47,-1.70,0.14,1.77
17.641,-0.66,-2.09,0.20,2.20
17.651,-0.72,-2.38,0.13,2.49
17.661,-0.65,-2.53,-0.05,2.62
17.671,-0.60,-2.64,-0.26,2.72
17.681,-0.58,-2.68,-0.38,2.77
17.691,-0.64,-2.71,-0.39,2.81
17.701,-0.79,-2.73,-0.29,2.86
17.712,-0.92,-2.85,-0.18,3.00
17.722,-0.97,-2.97,-0.06,3.13
17.732,-0.95,-3.04,-0.01,3.18
17.742,-0.88,-3.01,0.03,3.14
17.752,-0.73,-2.91,-0.01,3.00
17.762,-0.53,-2.86,-0.02,2.91
17.772,-0.41,-2.80,-0.04,2.83
17.782,-0.24,-2.60,-0.04,2.62
17.792,-0.04,-2.28,0.09,2.29
17.802,0.06,-2.00,0.33,2.03
17.812,0.17,-1.80,0.66,1.92
17.822,0.25,-1.66,0.98,1.94
17.832,0.42,-1.56,1.10,1.95
17.842,0.66,-1.50,1.04,1.94
17.852,0.88,-1.47,1.05,2.01
17.862,1.18,-1.45,0.83,2.05
17.872,1.43,-1.45,0.69,2.15
17.882,1.53,-1.49,0.83,2.29
17.893,1.41,-1.54,1.13,2.37
17.903,1.03,-1.52,1.49,2.37
17.913,0.50,-1.52,1.71,2.34
17.923,0.04,-1.46,1.62,2.18
17.933,-0.17,-1.19,1.33,1.79
17.943,-0.27,-0.90,0.93,1.32
17.953,-0.26,-0.97,0.72,1.23
17.963,0.02,-1.26,0.51,1.36
17.973,0.27,-1.62,0.36,1.68
17.983,0.38,-1.89,0.59,2.02
17.993,0.32,-2.00,0.93,2.23
18.003,0.24,-1.82,1.42,2.31
18.013,0.43,-1.48,1.87,2.42
18.023,0.72,-1.27,2.08,2.54
18.033,0.84,-1.32,2.21,2.71
18.043,0.98,-1.15,2.43,2.86
18.054,0.75,0.31,1.17,1.42
18.063,0.27,2.84,0.18,2.86
18.074,0.05,5.60,0.59,5.63
18.084,-0.05,6.30,0.80,6.35
18.094,-0.47,4.32,-0.87,4.43
18.104,-0.76,2.99,-2.04,3.70
18.114,-0.25,3.41,-2.21,4.07
18.124,0.37,4.98,-2.43,5.55
18.134,0.31,6.54,-1.77,6.78
18.144,0.27,7.38,-1.67,7.57
18.154,0.14,7.17,-1.56,7.34
18.164,-0.31,5.96,-0.58,6.00
18.174,-0.88,4.43,0.38,4.53
18.184,-1.26,3.26,0.97,3.62
18.194,-1.19,2.93,1.34,3.43
18.204,-0.98,2.87,1.39,3.34
18.214,-0.79,2.61,1.15,2.96
18.224,-0.51,2.08,0.64,2.23
18.234,-0.29,1.44,0.05,1.47
18.245,-0.19,0.79,-0.38,0.90
18.255,-0.03,0.32,-0.49,0.58
18.265,0.06,0.00,-0.55,0.55
18.275,-0.04,-0.26,-0.84,0.88
18.285,-0.11,-0.41,-1.30,1.37
18.295,-0.22,-0.54,-1.71,1.80
18.305,-0.29,-0.66,-1.94,2.07
18.315,-0.39,-0.87,-2.11,2.32
18.325,-0.39,-1.08,-2.00,2.31
18.335,-0.38,-1.18,-1.70,2.11
18.345,-0.19,-1.26,-1.28,1.81
18.355,0.07,-1.45,-0.75,1.64
18.365,0.24,-1.73,-0.27,1.76
18.375,0.56,-1.97,0.05,2.05
18.385,0.95,-2.16,0.13,2.36
18.395,1.35,-2.22,0.03,2.60
18.406,1.68,-2.16,-0.02,2.74
18.415,1.92,-1.87,-0.03,2.68
18.426,2.07,-1.40,-0.10,2.51
18.436,2.10,-1.05,-0.18,2.35
18.446,1.96,-0.89,-0.04,2.15
18.456,1.72,-0.88,0.08,1.93
18.466,1.44,-0.95,0.03,1.72
18.476,1.17,-1.12,-0.06,1.62
18.486,0.90,-1.37,0.03,1.64
18.496,0.65,-1.56,0.27,1.71
18.506,0.50,-1.59,0.42,1.72
18.516,0.40,-1.48,0.44,1.59
18.526,0.38,-1.28,0.63,1.48
18.536,0.34,-1.05,0.68,1.29
18.546,0.27,-0.73,0.71,1.05
18.556,0.21,-0.31,0.72,0.81
18.566,0.14,0.03,0.84,0.85
18.577,0.14,0.19,1.07,1.09
18.587,0.36,0.24,1.20,1.27
18.597,0.64,0.41,1.00,1.26
18.607,0.85,0.69,0.83,1.37
18.617,1.01,0.99,0.84,1.64
18.627,0.97,1.16,1.03,1.83
18.637,0.94,1.14,1.38,2.03
18.647,0.93,0.99,1.67,2.16
18.657,1.03,0.77,1.90,2.30
18.667,1.19,0.51,2.03,2.41
18.677,1.35,0.33,2.04,2.47
18.687,1.36,0.36,1.84,2.32
18.697,1.23,0.65,1.61,2.13
18.707,1.16,1.23,1.57,2.31
18.717,1.34,1.76,1.60,2.73
18.727,1.48,2.00,1.44,2.88
18.737,1.37,1.97,0.99,2.60
18.747,1.18,2.03,0.00,2.35
18.757,0.92,2.27,-1.19,2.72
18.768,0.26,2.39,-2.23,3.28
18.778,-0.66,2.03,-3.00,3.68
18.788,-1.74,1.30,-3.59,4.20
18.798,-2.85,0.45,-3.57,4.59
18.808,-3.65,-0.44,-2.97,4.73
18.818,-3.69,-1.34,-2.08,4.44
18.828,-2.97,-2.03,-1.12,3.77
18.838,-2.03,-1.85,-0.36,2.77
18.848,-0.99,-0.62,-0.19,1.19
18.858,0.11,0.56,-0.54,0.79
18.868,0.84,1.50,-1.02,2.00
18.878,1.10,2.27,-1.51,2.94
18.888,0.92,2.67,-1.79,3.34
18.898,0.41,2.65,-1.62,3.13
18.908,-0.35,2.32,-1.20,2.64
18.918,-1.13,1.72,-0.80,2.20
18.928,-1.47,1.40,-0.38,2.06
18.939,-1.20,1.27,-0.26,1.77
18.949,-1.33,0.66,-0.29,1.51
18.959,-1.23,-0.06,-0.26,1.26
18.969,-0.78,-0.63,-0.24,1.03
18.979,-0.34,-0.95,-0.32,1.06
18.989,0.11,-1.15,-0.46,1.24
18.999,0.45,-1.43,-0.43,1.56
19.009,0.59,-1.73,-0.33,1.86
19.019,0.45,-1.97,-0.22,2.03
19.029,0.11,-2.19,-0.08,2.20
19.039,-0.24,-2.19,0.12,2.21
19.049,-0.47,-2.05,0.34,2.13
19.059,-0.68,-1.88,0.50,2.06
19.069,-0.84,-1.76,0.49,2.01
19.079,-0.93,-1.61,0.42,1.90
19.089,-1.00,-1.40,0.33,1.76
19.100,-0.98,-1.14,0.28,1.53
19.110,-0.85,-0.92,0.36,1.30
19.120,-0.65,-0.72,0.45,1.07
19.130,-0.41,-0.57,0.46,0.84
19.140,-0.19,-0.53,0.36,0.67
19.150,-0.03,-0.65,0.29,0.72
19.160,0.09,-0.92,0.36,0.99
19.170,0.23,-1.20,0.52,1.33
19.180,0.35,-1.38,0.73,1.60
19.190,0.39,-1.46,0.87,1.74
19.200,0.46,-1.40,1.02,1.79
19.210,0.54,-1.24,1.15,1.77
19.220,0.57,-1.07,1.22,1.72
19.230,0.61,-0.91,1.28,1.69
19.240,0.51,-0.68,1.25,1.51
19.250,0.29,-0.49,1.20,1.33
19.260,0.23,-0.29,0.99,1.05
19.270,0.32,0.11,1.06,1.11
19.281,0.29,0.38,1.10,1.20
19.291,0.19,0.41,0.92,1.03
19.301,0.30,0.19,0.93,0.99
19.311,0.54,0.06,0.86,1.01
19.321,0.68,0.09,0.77,1.03
19.331,0.76,0.22,0.87,1.17
19.341,0.81,0.30,1.20,1.48
19.351,0.89,0.23,1.64,1.88
19.361,1.07,0.09,1.86,2.15
19.371,1.32,-0.01,2.07,2.46
19.381,1.68,0.01,2.40,2.93
19.391,1.96,0.13,2.56,3.23
19.401,2.15,0.48,2.59,3.40
19.411,2.24,1.42,2.17,3.43
19.421,2.15,3.01,1.34,3.93
19.431,1.82,4.34,0.97,4.81
19.441,0.87,4.89,0.66,5.02
19.451,-0.83,4.68,-0.12,4.75
19.461,-2.46,4.15,-1.00,4.93
19.472,-3.28,3.73,-1.12,5.09
19.482,-3.43,3.30,-0.86,4.83
19.492,-3.19,2.46,-1.02,4.15
19.502,-2.79,0.93,-0.76,3.04
19.512,-1.90,-0.70,-0.37,2.05
19.522,-0.78,-1.82,-0.55,2.05
19.532,0.28,-2.46,-0.90,2.63
19.542,0.90,-2.73,-1.44,3.21
19.552,0.92,-2.63,-1.78,3.30
19.562,0.39,-1.91,-1.88,2.71
19.572,-0.38,-0.93,-1.51,1.81
19.582,-1.49,-0.18,-1.16,1.90
19.592,-2.48,0.30,-1.11,2.74
19.602,-2.79,0.56,-1.46,3.20
19.612,-2.64,0.65,-1.65,3.18
19.623,-2.24,0.43,-1.56,2.76
19.632,-1.61,0.11,-1.56,2.25
19.643,-1.17,-0.03,-1.48,1.88
19.653,-0.73,-0.22,-1.24,1.45
19.663,-0.35,-0.34,-1.07,1.17
19.673,-0.15,-0.46,-1.10,1.20
19.683,0.08,-0.64,-1.17,1.34
19.693,0.31,-0.76,-1.17,1.43
19.703,0.45,-0.88,-1.12,1.49
19.713,0.45,-0.97,-1.02,1.48
19.723,0.37,-0.97,-0.95,1.40
19.733,0.30,-0.81,-0.96,1.29
19.743,0.29,-0.57,-0.97,1.17
19.753,0.28,-0.33,-1.03,1.12
19.763,0.21,-0.11,-1.01,1.04
19.773,0.10,0.01,-0.85,0.85
19.783,-0.02,0.14,-0.67,0.69
19.793,-0.20,0.25,-0.73,0.80
19.803,-0.45,0.16,-0.91,1.03
19.813,-0.75,-0.17,-1.08,1.32
19.824,-0.85,-0.48,-1.08,1.46
19.834,-0.75,-0.64,-0.83,1.29
19.844,-0.57,-0.71,-0.54,1.06
19.854,-0.28,-0.70,-0.26,0.80
19.864,-0.10,-0.72,-0.15,0.74
19.874,0.10,-0.92,-0.16,0.94
19.884,0.23,-0.96,-0.20,1.01
19.894,0.29,-1.02,-0.27,1.10
19.904,0.21,-1.22,-0.39,1.29
19.914,0.04,-1.44,-0.54,1.54
19.924,-0.18,-1.63,-0.61,1.75
19.934,-0.30,-1.58,-0.52,1.69
19.944,-0.28,-1.28,-0.30,1.35
19.954,-0.01,-0.85,-0.07,0.86
19.964,0.32,-0.59,-0.16,0.69
19.974,0.38,-0.75,-0.28,0.88
19.984,0.46,-1.24,-0.34,1.36
19.994,0.72,-1.79,-0.41,1.97
20.005,0.95,-2.31,-0.48,2.54
20.015,1.10,-2.89,-0.26,3.10
20.025,1.31,-3.14,-0.03,3.40
20.035,1.48,-2.88,0.02,3.24
20.045,1.73,-2.00,0.22,2.65
20.055,1.78,-0.96,0.29,2.04
20.065,1.37,-0.51,0.11,1.46
20.075,0.76,-0.52,-0.28,0.96
20.085,0.14,-0.94,-0.36,1.02
20.095,-0.16,-1.58,0.03,1.59
20.105,-0.11,-1.96,0.27,1.98
20.115,0.01,-2.20,0.59,2.28
20.125,0.37,-2.28,0.88,2.47
20.135,0.80,-2.27,1.17,2.67
20.145,1.18,-2.14,1.31,2.77
20.155,1.44,-1.90,1.14,2.64
20.165,1.69,-1.63,0.85,2.50
20.176,1.97,-1.37,0.53,2.46
20.186,2.13,-1.11,0.26,2.42
20.196,2.21,-1.00,0.02,2.43
20.206,2.25,-1.16,-0.02,2.53
20.216,2.25,-1.32,0.15,2.62
20.226,2.16,-1.49,0.54,2.68
20.236,1.75,-1.71,0.66,2.53
20.246,1.17,-1.73,0.29,2.11
20.256,1.12,-1.57,0.68,2.04
20.266,1.21,-0.87,1.45,2.08
20.276,0.20,1.19,0.33,1.25
20.286,-2.19,4.27,-1.41,5.00
20.296,-3.93,6.93,-1.85,8.18
20.306,-4.76,8.33,-2.09,9.82
20.316,-5.76,8.46,-3.35,10.77
20.326,-5.96,7.76,-3.69,10.46
20.336,-5.33,6.96,-2.98,9.25
20.347,-4.78,6.25,-2.32,8.20
20.357,-3.96,5.74,-2.63,7.45
20.367,-2.95,5.45,-3.25,6.99
20.377,-2.31,5.23,-2.77,6.35
20.387,-1.74,4.75,-1.41,5.25
20.397,-0.78,4.31,-0.16,4.39
20.407,0.58,3.89,0.31,3.95
20.417,1.29,3.11,0.35,3.39
20.427,1.21,2.03,0.34,2.39
20.437,0.88,1.04,0.33,1.40
20.447,0.78,0.45,0.33,0.96
20.457,0.94,0.15,0.24,0.98
20.467,0.93,0.03,0.02,0.93
20.477,0.61,-0.25,-0.25,0.70
20.487,0.30,-0.67,-0.50,0.89
20.497,0.15,-1.08,-0.58,1.23
20.507,-0.01,-1.52,-0.49,1.60
20.518,-0.01,-1.87,-0.33,1.90
20.528,0.06,-2.08,-0.32,2.11
20.538,0.07,-2.21,-0.38,2.25
20.548,-0.02,-2.26,-0.32,2.28
20.558,-0.10,-2.29,-0.20,2.31
20.568,-0.32,-2.20,-0.16,2.23
20.578,-0.54,-1.97,-0.14,2.05
20.588,-0.71,-1.67,-0.21,1.83
20.598,-0.84,-1.40,-0.26,1.65
20.608,-0.88,-1.13,-0.20,1.45
20.618,-0.83,-0.77,-0.13,1.14
20.628,-0.75,-0.40,-0.10,0.86
20.638,-0.73,-0.22,-0.38,0.85
20.648,-0.87,-0.28,-0.62,1.10
20.658,-1.13,-0.51,-0.45,1.32
20.668,-1.29,-0.73,-0.07,1.49
20.678,-1.35,-0.87,0.24,1.63
20.688,-1.23,-0.91,0.31,1.56
20.699,-0.86,-0.83,0.11,1.20
20.709,-0.50,-0.68,-0.06,0.85
20.719,-0.29,-0.57,0.05,0.64
20.729,-0.08,-0.53,0.35,0.64
20.739,0.04,-0.57,0.67,0.88
20.749,0.13,-0.64,0.81,1.04
20.759,0.16,-0.83,0.89,1.23
20.769,0.25,-1.07,0.78,1.35
20.779,0.40,-1.26,0.52,1.42
20.789,0.50,-1.45,0.25,1.55
20.799,0.55,-1.50,0.10,1.60
20.809,0.58,-1.45,0.00,1.56
20.819,0.65,-1.46,-0.23,1.61
20.829,0.75,-1.65,-0.39,1.85
20.840,0.52,-1.86,-0.26,1.95
20.849,0.04,-2.06,-0.03,2.06
20.859,-0.30,-2.07,0.14,2.10
20.870,-0.46,-1.78,0.09,1.84
20.880,-0.53,-1.36,-0.16,1.47
20.890,-0.60,-0.96,-0.46,1.22
20.900,-0.63,-0.76,-0.74,1.23
20.910,-0.59,-0.82,-0.71,1.24
20.920,-0.50,-1.07,-0.50,1.28
20.930,-0.43,-1.43,-0.31,1.53
20.940,-0.44,-1.94,-0.02,1.99
20.950,-0.50,-2.30,0.41,2.39
20.960,-0.51,-2.31,0.72,2.48
20.970,-0.22,-2.13,0.86,2.31
20.980,0.34,-1.99,1.11,2.30
20.990,0.82,-1.92,1.31,2.46
21.000,1.19,-1.93,1.22,2.57
21.010,1.39,-1.89,0.90,2.51
21.020,1.42,-1.73,0.66,2.33
21.031,1.25,-1.60,0.67,2.14
21.040,0.85,-1.54,0.76,1.91
21.051,0.32,-1.62,0.93,1.90
21.061,-0.03,-1.93,1.27,2.31
21.071,-0.04,-2.25,1.65,2.79
21.081,0.41,-2.40,1.81,3.03
21.091,0.97,-1.72,1.25,2.34
21.101,1.03,-0.52,0.16,1.16
21.111,0.95,0.99,-0.53,1.47
21.121,0.18,2.80,-0.73,2.90
21.131,-1.41,4.08,-1.74,4.65
21.141,-2.59,5.07,-3.06,6.46
21.151,-3.00,5.64,-2.41,6.83
21.161,-2.85,5.18,-1.33,6.06
21.171,-2.03,3.92,-0.22,4.42
21.181,-0.80,2.62,0.44,2.77
21.191,0.58,2.62,0.28,2.70
21.201,2.32,4.20,0.13,4.80
21.211,3.15,6.33,0.15,7.07
21.221,2.48,7.52,0.16,7.92
21.232,0.57,6.23,-0.07,6.26
21.242,-0.86,4.02,-0.39,4.13
21.252,-1.15,2.61,-0.40,2.88
21.262,-1.21,1.69,-0.12,2.08
21.272,-1.15,1.21,0.30,1.69
21.282,-0.90,1.43,0.84,1.89
21.292,-0.50,2.04,1.27,2.46
21.302,-0.21,2.53,1.26,2.83
21.312,0.11,2.75,0.94,2.91
21.322,0.33,2.65,0.46,2.71
21.332,0.29,2.11,0.12,2.13
21.342,0.18,1.29,-0.08,1.31
21.352,0.13,0.39,-0.31,0.51
21.362,0.21,-0.33,-0.43,0.58
21.372,0.40,-0.88,-0.48,1.08
21.383,0.54,-1.31,-0.49,1.50
21.392,0.71,-1.62,-0.50,1.84
21.403,0.80,-1.80,-0.48,2.03
21.413,0.78,-1.91,-0.50,2.12
21.423,0.77,-2.04,-0.59,2.26
21.433,0.79,-2.17,-0.65,2.40
21.443,0.78,-2.21,-0.60,2.42
21.453,0.76,-1.93,-0.51,2.14
21.463,0.69,-1.46,-0.39,1.66
21.473,0.61,-1.08,-0.37,1.29
21.483,0.52,-0.93,-0.53,1.19
21.493,0.43,-0.94,-0.68,1.24
21.503,0.39,-1.07,-0.70,1.33
21.513,0.39,-1.26,-0.47,1.40
21.523,0.40,-1.53,-0.27,1.60
21.533,0.34,-1.77,-0.25,1.82
21.543,0.36,-1.88,-0.36,1.95
21.553,0.41,-1.84,-0.34,1.92
21.563,0.50,-1.84,-0.22,1.92
21.573,0.49,-1.93,0.01,1.99
21.583,0.54,-1.93,0.16,2.01
21.594,0.64,-1.68,0.15,1.80
21.604,0.70,-1.19,0.10,1.38
21.614,0.74,-0.78,0.08,1.07
21.624,0.79,-0.66,0.07,1.04
21.634,1.00,-0.82,0.16,1.31
21.644,1.20,-1.23,0.17,1.73
21.654,1.24,-1.90,0.15,2.27
21.664,1.28,-2.41,0.05,2.73
21.674,1.14,-2.59,-0.09,2.83
21.684,0.79,-2.48,-0.19,2.61
21.694,0.49,-2.12,-0.23,2.19
21.704,0.30,-1.77,-0.04,1.79
21.714,0.16,-1.36,0.07,1.37
21.724,0.15,-1.22,0.26,1.25
21.735,0.39,-1.33,0.32,1.42
21.744,0.85,-1.50,0.16,1.73
21.755,1.37,-1.73,0.02,2.21
21.765,1.57,-1.86,0.13,2.44
21.775,1.46,-2.01,0.28,2.50
21.785,1.25,-2.08,0.43,2.46
21.795,1.20,-1.94,0.56,2.35
21.805,1.40,-1.62,0.57,2.22
21.815,1.55,-1.19,0.65,2.06
21.825,1.43,-0.92,0.62,1.81
21.835,1.16,-0.86,0.36,1.49
21.845,0.78,-0.51,-0.09,0.94
21.855,0.01,0.23,-0.56,0.61
21.865,-1.31,1.36,-1.46,2.38
21.875,-2.56,2.35,-2.13,4.08
21.885,-2.78,2.77,-1.64,4.25
21.895,-2.67,3.16,-1.02,4.26
21.905,-3.12,4.31,-1.12,5.44
21.915,-3.49,5.52,-1.52,6.70
21.926,-3.49,6.10,-1.67,7.22
21.936,-3.36,6.15,-0.75,7.05
21.946,-2.37,6.10,0.87,6.60
21.956,-0.41,6.42,1.71,6.65
21.966,0.95,6.95,1.16,7.11
21.976,1.41,6.99,0.23,7.13
21.986,1.88,6.35,-0.53,6.64
21.996,1.99,5.16,-0.60,5.56
22.006,1.60,3.66,-0.11,4.00
22.016,0.96,2.40,0.48,2.63
22.026,0.14,1.38,0.86,1.63
22.036,-0.59,0.59,0.91,1.23
22.046,-1.06,0.24,0.64,1.26
22.056,-1.30,0.11,0.26,1.33
22.067,-1.40,-0.08,-0.06,1.40
22.076,-1.36,-0.33,-0.22,1.41
22.087,-1.20,-0.76,-0.25,1.44
22.097,-0.98,-1.28,-0.13,1.62
22.107,-0.76,-1.81,0.04,1.96
22.117,-0.58,-2.28,0.08,2.35
22.127,-0.45,-2.70,-0.01,2.74
22.137,-0.37,-3.05,-0.09,3.08
22.147,-0.24,-3.31,-0.24,3.33
22.157,-0.10,-3.39,-0.44,3.42
22.167,-0.03,-3.34,-0.59,3.39
22.177,-0.18,-3.19,-0.57,3.24
22.187,-0.46,-2.96,-0.39,3.02
22.197,-0.73,-2.71,-0.19,2.81
22.207,-0.93,-2.44,-0.13,2.62
22.217,-1.02,-2.22,-0.02,2.45
22.227,-0.95,-1.95,0.11,2.17
22.237,-0.83,-1.60,0.09,1.80
22.247,-0.71,-1.29,0.04,1.47
22.258,-0.59,-1.07,0.01,1.22
22.267,-0.55,-0.92,0.11,1.07
22.278,-0.45,-0.89,0.23,1.02
22.288,-0.27,-1.08,0.47,1.21
22.298,0.06,-1.58,0.89,1.81
22.308,0.44,-2.31,0.98,2.55
22.318,0.74,-2.74,0.79,2.95
22.328,0.88,-2.60,0.44,2.78
22.338,0.91,-2.28,0.07,2.46
22.348,0.77,-1.95,0.01,2.10
22.358,0.48,-1.75,0.04,1.81
22.368,0.08,-1.67,0.10,1.67
22.378,-0.56,-1.89,0.14,1.98
22.388,-1.10,-2.25,0.31,2.53
22.398,-1.28,-2.49,0.56,2.85
22.408,-1.19,-2.30,0.68,2.68
22.418,-0.87,-1.88,0.62,2.16
22.428,-0.53,-1.42,0.50,1.60
22.439,-0.20,-1.25,0.34,1.31
22.449,0.16,-1.44,0.17,1.46
22.459,0.49,-1.72,-0.09,1.79
22.469,0.61,-2.16,-0.15,2.25
22.479,0.62,-2.77,0.12,2.84
22.489,0.64,-3.27,0.53,3.38
22.499,0.71,-3.67,1.01,3.87
22.509,0.91,-3.71,1.30,4.04
22.519,1.31,-3.09,1.30,3.60
22.529,1.22,-1.52,-0.09,1.95
22.539,1.04,0.35,-0.31,1.14
22.549,1.62,2.90,-0.02,3.32
22.559,0.20,3.88,-0.40,3.91
22.569,-2.29,4.40,-2.21,5.43
22.579,-3.16,6.35,-2.90,7.67
22.589,-3.58,7.36,-2.28,8.50
22.599,-3.62,6.66,-1.19,7.68
22.609,-3.05,5.81,-1.05,6.64
22.620,-1.69,6.27,-1.61,6.69
22.630,0.11,6.73,-0.22,6.74
22.640,0.93,6.04,1.17,6.22
22.650,1.49,4.77,1.79,5.31
22.660,2.41,3.61,1.63,4.64
22.670,2.96,3.19,1.73,4.69
22.680,2.93,3.75,2.27,5.27
22.690,2.44,4.45,2.43,5.63
22.700,1.59,4.10,2.00,4.83
22.710,0.59,3.13,1.25,3.42
22.720,-0.08,2.42,0.60,2.50
22.730,-0.33,1.92,0.21,1.95
22.740,-0.53,1.49,-0.02,1.59
22.750,-0.78,1.29,-0.12,1.51
22.760,-0.70,1.10,-0.18,1.32
22.770,-0.48,0.83,-0.28,0.99
22.780,-0.28,0.40,-0.42,0.65
22.791,-0.18,-0.13,-0.57,0.61
22.801,-0.22,-0.62,-0.64,0.92
22.811,-0.26,-1.20,-0.57,1.35
22.821,-0.23,-1.72,-0.44,1.79
22.831,-0.07,-2.15,-0.30,2.17
22.841,0.20,-2.45,-0.26,2.47
22.851,0.53,-2.63,-0.33,2.70
22.861,0.78,-2.74,-0.38,2.88
22.871,0.94,-2.63,-0.54,2.84
22.881,1.15,-2.23,-0.76,2.62
22.891,1.29,-1.62,-0.99,2.29
22.901,1.30,-1.05,-1.12,2.01
22.911,1.04,-0.68,-1.05,1.63
22.921,0.66,-0.52,-0.99,1.30
22.931,0.30,-0.50,-0.95,1.12
22.942,-0.00,-0.75,-0.76,1.06
22.951,-0.09,-1.03,-0.41,1.11
22.961,-0.01,-1.11,-0.13,1.12
22.972,0.08,-1.18,-0.06,1.19
22.982,0.14,-1.28,-0.07,1.29
22.992,0.18,-1.41,-0.06,1.42
23.002,0.17,-1.57,-0.16,1.59
23.012,0.18,-1.82,-0.23,1.84
23.022,0.30,-2.08,-0.06,2.11
23.032,0.69,-2.12,0.42,2.27
23.042,1.25,-1.83,0.84,2.37
23.052,1.85,-1.25,0.75,2.35
23.062,2.18,-0.89,0.29,2.37
23.072,2.05,-0.92,-0.04,2.25
23.082,1.77,-1.18,-0.23,2.14
23.092,1.49,-1.80,-0.31,2.36
23.102,1.32,-2.28,-0.25,2.65
23.112,1.09,-2.43,-0.07,2.67
23.122,0.82,-2.22,0.18,2.38
23.132,0.52,-1.77,0.38,1.88
23.143,0.52,-1.13,0.53,1.35
23.152,0.87,-0.64,0.71,1.29
23.163,1.19,-0.41,0.74,1.46
23.173,1.30,-0.57,0.53,1.52
23.183,1.41,-1.09,0.18,1.79
23.193,1.66,-1.47,0.12,2.22
23.203,1.79,-1.52,0.38,2.38
23.213,1.85,-1.54,0.63,2.49
23.223,1.89,-1.70,0.68,2.63
23.233,1.83,-1.97,0.63,2.77
23.243,1.72,-2.17,0.27,2.78
23.253,1.31,-2.32,-0.39,2.70
23.263,0.41,-2.49,-1.37,2.88
23.273,-0.52,-2.54,-1.63,3.06
23.283,-1.19,-1.89,-1.21,2.54
23.293,-1.97,-0.42,-0.80,2.16
23.304,-2.48,1.24,-1.04,2.96
23.314,-2.69,2.45,-1.50,3.93
23.324,-2.49,3.46,-1.48,4.51
23.334,-2.04,4.77,-1.71,5.46
23.344,-1.95,6.27,-2.41,6.99
23.354,-1.99,7.37,-2.63,8.07
23.364,-2.17,7.82,-1.84,8.32
23.374,-2.49,7.32,-0.52,7.75
23.384,-2.67,6.39,0.54,6.95
23.394,-2.35,5.58,0.88,6.12
23.404,-1.87,4.96,1.06,5.40
23.414,-1.28,4.73,1.20,5.05
23.424,-0.82,4.41,1.26,4.66
23.434,-0.25,3.82,1.24,4.02
23.444,0.36,3.11,1.21,3.36
23.454,0.81,2.39,1.07,2.74
23.464,1.03,1.76,0.75,2.17
23.474,1.05,1.20,0.23,1.61
23.484,0.87,0.65,-0.22,1.10
23.495,0.55,-0.00,-0.41,0.68
23.505,0.19,-0.61,-0.31,0.71
23.515,-0.13,-1.21,-0.31,1.25
23.525,-0.43,-1.80,-0.41,1.90
23.535,-0.69,-2.33,-0.47,2.47
23.545,-0.90,-2.78,-0.36,2.95
23.555,-0.98,-3.10,-0.11,3.26
23.565,-0.93,-3.27,0.08,3.40
23.575,-0.78,-3.25,0.16,3.35
23.585,-0.61,-3.08,0.16,3.15
23.595,-0.41,-2.91,0.11,2.94
23.605,-0.30,-2.85,-0.14,2.87
23.615,-0.47,-2.88,-0.40,2.95
23.625,-0.67,-2.94,-0.50,3.06
23.635,-0.79,-2.92,-0.49,3.06
23.645,-0.86,-2.84,-0.34,2.99
23.656,-0.82,-2.72,-0.14,2.84
23.666,-0.64,-2.61,0.02,2.69
23.676,-0.49,-2.49,-0.01,2.54
23.686,-0.36,-2.38,-0.13,2.41
23.696,-0.22,-2.32,-0.14,2.34
23.706,-0.14,-2.07,-0.14,2.08
23.716,-0.15,-1.69,-0.05,1.70
23.726,-0.33,-1.48,0.23,1.53
23.736,-0.57,-1.49,0.46,1.66
23.746,-0.75,-1.50,0.39,1.72
23.756,-0.87,-1.29,0.20,1.57
23.766,-0.73,-1.18,0.06,1.39
23.776,-0.48,-1.16,-0.08,1.26
23.786,-0.07,-1.50,-0.06,1.50
23.796,0.46,-2.05,0.02,2.10
23.806,0.66,-2.58,0.22,2.67
23.816,0.47,-2.93,0.51,3.01
23.826,0.32,-2.96,0.71,3.06
23.837,0.48,-2.80,0.88,2.98
23.847,0.88,-2.44,1.00,2.78
23.857,1.21,-1.82,0.77,2.32
23.867,1.32,-1.44,0.40,1.99
23.877,1.29,-1.61,0.56,2.14
23.887,1.03,-2.06,0.96,2.49
23.897,0.70,-2.39,1.31,2.81
23.907,0.29,-2.58,1.38,2.94
23.917,-0.05,-2.74,1.06,2.94
23.927,-0.09,-2.59,1.00,2.78
23.937,-0.22,-1.26,0.02,1.28
23.947,-0.62,0.93,-1.15,1.61
23.957,-0.55,3.67,-1.58,4.04
23.967,-1.24,4.84,-0.93,5.08
23.977,-2.59,4.63,-0.54,5.33
23.987,-2.91,5.77,-1.32,6.60
23.997,-2.51,6.91,-1.21,7.45
24.008,-0.99,6.89,-1.44,7.11
24.018,0.27,5.03,-0.61,5.08
24.028,1.08,4.40,-0.06,4.53
24.038,2.38,5.97,-0.05,6.42
24.048,3.07,7.55,1.32,8.25
24.058,2.35,6.80,2.57,7.64
24.068,1.81,4.57,2.47,5.50
24.078,1.72,3.25,1.87,4.13
24.088,1.23,3.06,1.75,3.74
24.098,0.63,3.56,1.73,4.01
24.108,0.24,3.80,1.75,4.19
24.118,0.02,3.50,1.58,3.84
24.128,0.01,2.88,1.08,3.08
24.138,0.24,2.54,0.48,2.60
24.148,0.33,2.25,-0.13,2.28
24.158,0.20,1.82,-0.58,1.92
24.168,-0.03,1.15,-0.83,1.42
24.178,-0.20,0.49,-0.97,1.10
24.189,-0.37,0.04,-1.06,1.12
24.199,-0.50,-0.32,-1.13,1.28
24.209,-0.56,-0.66,-1.12,1.41
24.219,-0.56,-1.05,-1.03,1.57
24.229,-0.52,-1.41,-0.88,1.74
24.239,-0.40,-1.60,-0.73,1.80
24.249,-0.20,-1.77,-0.63,1.89
24.259,0.06,-1.95,-0.66,2.06
24.269,0.25,-2.17,-0.72,2.30
24.279,0.38,-2.39,-0.78,2.55
24.289,0.55,-2.55,-0.79,2.72
24.299,0.73,-2.65,-0.64,2.82
24.309,0.86,-2.71,-0.63,2.92
24.319,0.96,-2.50,-0.65,2.75
24.329,1.01,-1.93,-0.79,2.32
24.339,0.99,-1.47,-0.91,1.99
24.349,0.79,-1.40,-0.85,1.82
24.360,0.53,-1.82,-0.74,2.04
24.370,0.17,-2.28,-0.63,2.37
24.380,-0.18,-2.68,-0.43,2.73
24.390,-0.29,-2.86,-0.24,2.88
24.400,-0.13,-2.76,0.06,2.77
24.410,0.23,-2.34,0.40,2.38
24.420,0.71,-1.53,0.49,1.75
24.430,1.08,-0.92,0.18,1.43
24.440,1.22,-0.80,-0.37,1.50
24.450,0.90,-1.18,-0.77,1.67
24.460,0.58,-1.93,-1.03,2.27
24.470,0.58,-2.64,-0.83,2.82
24.480,0.63,-2.98,-0.44,3.08
24.490,0.64,-2.99,0.03,3.05
24.500,0.81,-2.49,0.30,2.64
24.510,1.20,-1.39,0.24,1.85
24.520,1.66,-0.15,0.13,1.67
24.531,1.83,0.67,-0.15,1.95
24.541,1.48,0.83,-0.53,1.78
24.551,0.77,-0.02,-0.94,1.21
24.561,0.20,-1.63,-0.88,1.86
24.571,0.18,-2.91,-0.34,2.94
24.581,0.40,-3.57,0.23,3.60
24.591,0.90,-3.78,0.66,3.94
24.601,1.53,-3.61,0.68,3.98
24.611,1.97,-2.90,0.90,3.62
24.621,2.06,-1.95,1.17,3.07
24.631,1.65,-1.21,0.80,2.19
24.641,0.83,-1.08,0.29,1.40
24.651,0.24,-1.33,-0.09,1.36
24.661,0.04,-0.79,0.13,0.81
24.671,-0.19,0.55,-0.00,0.58
24.681,-0.89,2.04,-0.95,2.42
24.691,-1.37,3.54,-1.77,4.19
24.701,-1.24,5.02,-1.72,5.45
24.712,-1.47,6.36,-2.20,6.89
24.722,-2.66,6.97,-3.09,8.08
24.732,-4.22,6.72,-3.49,8.67
24.742,-5.53,6.26,-2.33,8.67
24.752,-5.90,5.98,0.30,8.41
24.762,-4.92,6.06,2.50,8.20
24.772,-3.40,6.66,2.61,7.92
24.782,-1.77,7.28,0.99,7.56
24.792,0.04,7.17,-0.36,7.18
24.802,1.39,6.11,-0.49,6.29
24.812,2.22,4.52,-0.04,5.04
24.822,2.25,2.91,0.38,3.70
24.832,1.93,1.48,0.70,2.53
24.842,1.52,0.38,0.78,1.75
24.852,0.99,-0.18,0.72,1.23
24.862,0.37,-0.45,0.54,0.79
24.872,-0.27,-0.64,0.28,0.75
24.882,-0.83,-0.80,0.03,1.16
24.893,-1.21,-0.99,-0.05,1.57
24.903,-1.37,-1.34,0.16,1.93
24.913,-1.40,-1.81,0.32,2.31
24.923,-1.44,-2.27,0.29,2.70
24.933,-1.48,-2.70,0.16,3.08
24.943,-1.42,-3.06,0.01,3.37
24.953,-1.17,-3.35,-0.05,3.55
24.963,-0.85,-3.37,0.02,3.47
24.973,-0.47,-3.12,-0.11,3.16
24.983,-0.11,-2.75,-0.32,2.77
24.993,0.15,-2.37,-0.40,2.41
25.003,0.19,-2.14,-0.42,2.19
25.013,-0.06,-2.05,-0.47,2.10
25.023,-0.33,-2.01,-0.42,2.08
25.033,-0.55,-1.96,-0.24,2.05
25.044,-0.65,-1.87,-0.08,1.98
25.054,-0.65,-1.70,0.09,1.82
25.064,-0.60,-1.39,0.27,1.54
25.074,-0.45,-0.99,0.46,1.18
25.084,-0.16,-0.66,0.57,0.89
25.094,0.17,-0.56,0.60,0.84
25.104,0.38,-0.72,0.58,1.00
25.114,0.42,-0.98,0.31,1.11
25.124,0.42,-1.25,-0.02,1.32
25.134,0.44,-1.59,-0.06,1.65
25.144,0.43,-1.93,0.11,1.98
25.154,0.52,-2.14,0.02,2.20
25.164,0.46,-2.47,-0.03,2.52
25.174,0.35,-2.92,0.09,2.94
25.184,0.16,-3.18,0.27,3.19
25.194,-0.04,-3.11,0.38,3.13
25.204,-0.18,-2.84,0.52,2.90
25.214,-0.29,-2.39,0.63,2.48
25.224,-0.57,-1.82,0.57,1.99
25.234,-0.80,-1.39,0.38,1.65
25.244,-0.82,-1.33,0.26,1.58
25.255,-0.74,-1.59,0.25,1.77
25.265,-0.62,-2.02,0.14,2.12
25.275,-0.53,-2.50,0.10,2.56
25.285,-0.49,-2.88,0.22,2.93
25.295,-0.55,-3.07,0.33,3.14
25.305,-0.45,-3.27,0.44,3.33
25.315,-0.01,-3.33,0.57,3.38
25.325,0.57,-3.33,0.69,3.45
25.335,1.14,-3.32,0.89,3.62
25.345,1.57,-3.31,1.16,3.84
25.355,1.59,-2.55,0.09,3.01
25.365,0.41,-1.18,-1.06,1.64
25.375,0.50,1.14,-0.84,1.51
25.385,0.92,4.53,-1.30,4.80
25.395,-1.73,6.74,-1.92,7.22
25.405,-4.86,8.53,-2.71,10.19
25.415,-6.07,8.77,-1.20,10.74
25.426,-4.55,7.11,-0.06,8.44
25.436,-1.38,5.81,-0.52,6.00
25.446,1.72,6.62,-0.54,6.86
25.456,3.91,7.85,0.99,8.83
25.466,4.47,6.99,2.32,8.61
25.476,4.57,5.11,2.67,7.36
25.486,4.35,3.57,2.28,6.07
25.496,3.55,3.13,2.08,5.17
25.506,2.39,3.93,2.18,5.09
25.516,1.00,4.55,2.00,5.07
25.526,-0.37,4.06,1.55,4.36
25.536,-1.28,3.06,1.10,3.50
25.546,-1.30,2.42,0.76,2.85
25.556,-0.73,2.11,0.41,2.27
25.566,-0.12,1.96,0.04,1.97
25.576,0.18,1.60,-0.34,1.64
25.587,0.43,1.09,-0.59,1.31
25.597,0.79,0.74,-0.65,1.27
25.607,0.98,0.39,-0.70,1.27
25.617,0.95,-0.02,-0.76,1.22
25.627,0.67,-0.52,-0.79,1.16
25.637,0.21,-0.99,-0.78,1.28
25.647,-0.05,-1.55,-0.67,1.69
25.657,-0.08,-2.15,-0.60,2.23
25.667,-0.02,-2.66,-0.57,2.73
25.677,0.13,-3.03,-0.55,3.09
25.687,0.32,-3.21,-0.63,3.29
25.697,0.63,-3.17,-0.74,3.31
25.707,0.89,-2.67,-0.85,2.95
25.717,0.98,-1.97,-0.95,2.40
25.727,0.87,-1.33,-1.09,1.93
25.737,0.60,-0.71,-1.11,1.44
25.747,0.40,-0.31,-0.94,1.07
25.758,0.29,-0.24,-0.77,0.86
25.768,0.25,-0.44,-0.55,0.75
25.778,0.27,-0.74,-0.24,0.82
25.788,0.28,-0.93,-0.02,0.98
25.798,0.34,-1.06,0.16,1.13
25.808,0.43,-1.15,0.27,1.26
25.818,0.50,-1.20,0.24,1.33
25.828,0.43,-1.35,0.05,1.42
25.838,0.23,-1.66,-0.15,1.68
25.848,0.09,-2.04,-0.10,2.05
25.858,0.06,-2.20,0.07,2.21
25.868,0.08,-2.25,0.29,2.27
25.878,0.27,-2.11,0.51,2.19
25.888,0.57,-1.90,0.43,2.03
25.898,0.84,-1.91,0.17,2.09
25.908,1.07,-2.08,-0.20,2.35
25.918,1.14,-2.27,-0.55,2.60
25.928,1.13,-2.43,-0.74,2.79
25.939,1.26,-2.73,-0.67,3.08
25.949,1.48,-3.10,-0.30,3.45
25.959,1.71,-3.40,0.29,3.81
25.969,1.97,-3.41,0.64,3.99
25.979,2.31,-3.18,0.70,3.99
25.989,2.61,-2.58,0.38,3.69
25.999,2.50,-1.64,-0.00,2.99
26.009,2.18,-0.91,-0.18,2.37
26.019,1.61,-0.57,-0.46,1.77
26.029,0.76,-0.99,-0.64,1.40
26.039,0.20,-1.69,-0.53,1.78
26.049,0.14,-2.17,-0.24,2.18
26.059,0.43,-2.53,0.12,2.57
26.069,0.74,-2.89,0.47,3.02
26.079,0.92,-3.14,0.78,3.37
26.089,0.76,-2.73,0.49,2.88
26.099,0.21,-1.24,-0.12,1.26
26.110,-0.65,0.89,-0.83,1.38
26.120,-1.69,2.98,-1.30,3.66
26.130,-2.43,4.95,-1.07,5.62
26.140,-3.17,7.19,-1.43,7.99
26.150,-4.51,8.73,-1.96,10.02
26.160,-5.16,8.92,-2.43,10.58
26.170,-5.03,8.43,-2.17,10.05
26.180,-4.52,7.48,-1.39,8.85
26.190,-3.13,6.13,-0.77,6.93
26.200,-1.32,5.24,-0.33,5.41
26.210,0.40,4.90,0.06,4.91
26.220,1.84,4.84,0.42,5.19
26.230,3.00,4.83,0.85,5.75
26.240,3.57,4.78,1.12,6.07
26.250,3.17,4.55,1.04,5.64
26.260,2.13,4.05,0.88,4.66
26.270,1.18,3.41,0.78,3.69
26.281,0.53,2.68,0.81,2.85
26.291,0.11,1.89,0.92,2.10
26.301,-0.19,1.19,1.02,1.58
26.311,-0.34,0.52,0.92,1.11
26.321,-0.40,-0.31,0.63,0.81
26.331,-0.48,-1.20,0.19,1.31
26.341,-0.53,-1.90,-0.22,1.99
26.351,-0.54,-2.52,-0.56,2.63
26.361,-0.47,-3.07,-0.72,3.19
26.371,-0.38,-3.49,-0.71,3.58
26.381,-0.47,-3.68,-0.63,3.76
26.391,-0.72,-3.65,-0.51,3.76
26.401,-1.10,-3.43,-0.41,3.63
26.411,-1.49,-3.20,-0.38,3.55
26.421,-1.80,-3.03,-0.29,3.54
26.431,-1.92,-2.91,-0.07,3.49
26.441,-1.85,-2.81,0.10,3.36
26.451,-1.61,-2.68,0.26,3.14
26.461,-1.25,-2.53,0.26,2.83
26.472,-0.83,-2.35,0.05,2.49
26.482,-0.45,-2.12,-0.23,2.18
26.492,-0.22,-1.76,-0.30,1.79
26.502,-0.16,-1.37,-0.28,1.40
26.512,-0.13,-0.96,-0.21,1.00
26.522,-0.12,-0.58,-0.17,0.62
26.532,-0.24,-0.29,-0.01,0.38
26.542,-0.32,-0.15,0.28,0.45
26.552,-0.35,-0.16,0.68,0.78
26.562,-0.24,-0.30,0.94,1.02
26.572,0.14,-0.57,1.09,1.24
26.582,0.62,-0.94,1.16,1.61
26.592,1.07,-1.53,1.11,2.17
26.602,1.42,-2.11,1.01,2.73
26.613,1.65,-2.26,0.90,2.94
26.622,1.81,-2.03,0.79,2.83
26.632,1.59,-1.52,0.72,2.32
26.643,1.00,-0.90,0.67,1.50
26.653,0.34,-0.25,0.68,0.80
26.663,-0.15,0.17,0.63,0.67
26.673,-0.45,0.27,0.52,0.73
26.683,-0.52,-0.21,0.45,0.73
26.693,-0.45,-1.00,0.50,1.20
26.703,-0.15,-1.76,0.45,1.82
26.713,0.15,-2.28,0.14,2.28
26.723,0.07,-2.67,-0.06,2.68
26.733,-0.12,-3.01,-0.03,3.01
26.743,-0.12,-3.16,-0.15,3.17
26.753,-0.11,-3.17,-0.36,3.19
26.763,-0.07,-3.35,-0.07,3.35
26.773,0.15,-3.84,0.60,3.89
26.783,0.44,-4.18,1.03,4.33
26.793,0.61,-4.26,1.07,4.44
26.803,0.41,-4.26,1.23,4.45
26.813,0.17,-3.76,1.26,3.97
26.824,-0.39,-2.13,-0.41,2.21
26.834,-0.43,0.79,-1.59,1.83
26.844,-0.35,4.49,-2.08,4.96
26.854,-1.58,6.09,-1.64,6.50
26.864,-3.52,7.53,-2.76,8.76
26.874,-5.22,9.72,-3.53,11.58
26.884,-4.73,10.63,-2.92,11.99
26.894,-2.82,8.95,-1.59,9.52
26.904,-1.10,5.94,0.31,6.05
26.914,1.26,3.58,1.57,4.11
26.924,3.09,2.70,1.66,4.43
26.934,4.10,3.57,1.80,5.73
26.944,4.74,5.56,2.12,7.61
26.954,4.16,7.03,1.89,8.38
26.964,2.34,7.48,1.34,7.95
26.975,-0.08,6.32,0.36,6.33
26.984,-1.83,4.66,-0.45,5.03
26.995,-2.39,3.11,-0.84,4.01
27.005,-2.15,1.83,-0.79,2.94
27.015,-1.50,0.93,-0.71,1.90
27.025,-0.96,0.32,-0.73,1.25
27.035,-0.54,-0.06,-0.77,0.94
27.045,-0.14,-0.29,-0.95,1.01
27.055,0.16,-0.60,-1.37,1.50
27.065,0.29,-0.94,-1.63,1.91
27.075,0.24,-1.25,-1.56,2.01
27.085,0.10,-1.56,-1.42,2.11
27.095,-0.08,-2.12,-1.30,2.49
27.105,-0.23,-3.10,-1.15,3.32
27.115,-0.23,-4.10,-1.07,4.24
27.125,-0.19,-4.50,-0.93,4.59
27.135,-0.18,-4.21,-0.81,4.29
27.146,0.06,-3.61,-0.76,3.69
27.155,0.33,-2.65,-0.86,2.81
27.166,0.61,-1.40,-0.97,1.81
27.176,0.83,-0.09,-0.96,1.27
27.186,0.94,0.90,-0.83,1.54
27.196,0.83,1.37,-0.69,1.74
27.206,0.43,1.49,-0.52,1.63
27.216,0.07,1.33,-0.26,1.35
27.226,-0.13,1.12,0.00,1.12
27.236,-0.17,0.76,0.22,0.81
27.246,-0.02,0.33,0.54,0.63
27.256,0.21,0.01,0.66,0.69
27.266,0.40,-0.21,0.62,0.76
27.276,0.59,-0.38,0.55,0.90
27.286,0.79,-0.52,0.45,1.05
27.296,0.99,-0.64,0.39,1.25
27.306,1.20,-0.66,0.31,1.40
27.316,1.38,-0.64,0.24,1.54
27.327,1.45,-0.57,0.14,1.56
27.337,1.34,-0.52,0.07,1.44
27.347,1.12,-0.61,0.22,1.30
27.357,0.88,-0.66,0.45,1.19
27.367,0.73,-0.46,0.64,1.07
27.377,0.83,0.04,0.78,1.13
27.387,0.95,0.45,0.73,1.28
27.397,1.01,0.53,0.65,1.31
27.407,1.09,0.38,0.44,1.24
27.417,1.05,0.25,0.22,1.10
27.427,0.73,0.22,0.07,0.76
27.437,0.15,0.25,-0.16,0.34
27.447,-0.52,0.30,-0.38,0.71
27.457,-1.14,0.33,-0.30,1.22
27.467,-1.59,0.28,0.09,1.62
27.477,-1.74,0.35,0.44,1.83
27.487,-1.60,0.42,0.45,1.71
27.497,-1.20,0.43,0.12,1.28
27.508,-0.86,0.38,-0.26,0.98
27.518,-0.65,0.27,-0.43,0.83
27.528,-0.50,0.21,-0.52,0.75
27.538,-0.53,0.16,-0.68,0.88
27.548,-0.62,0.16,-0.81,1.03
27.558,-0.56,0.16,-0.78,0.97
27.568,-0.39,0.10,-0.70,0.81
27.578,-0.16,-0.09,-0.71,0.73
27.588,0.05,-0.29,-0.77,0.82
27.598,0.18,-0.36,-0.80,0.89
27.608,0.27,-0.41,-0.76,0.90
27.618,0.34,-0.41,-0.70,0.88
27.628,0.35,-0.19,-0.51,0.64
27.638,0.18,-0.03,-0.19,0.26
27.648,-0.13,0.00,0.15,0.20
27.658,-0.37,0.10,0.35,0.52
27.668,-0.60,0.23,0.41,0.77
27.679,-0.75,0.38,0.35,0.91
27.689,-0.81,0.67,0.28,1.09
27.699,-0.77,0.94,0.23,1.24
27.709,-0.74,1.14,0.17,1.37
27.719,-0.88,1.19,0.22,1.49
27.729,-1.04,1.16,0.26,1.57
27.739,-1.08,1.06,0.35,1.56
27.749,-1.16,0.91,0.46,1.54
27.759,-1.23,0.69,0.26,1.44
27.769,-1.14,0.52,0.07,1.25
27.779,-1.08,0.24,-0.04,1.10
27.789,-0.96,-0.08,0.02,0.96
27.799,-0.79,-0.35,0.10,0.86
27.809,-0.62,-0.55,0.16,0.84
27.819,-0.49,-0.67,0.19,0.85
27.829,-0.34,-0.72,0.19,0.81
27.839,-0.27,-0.76,0.24,0.84
27.849,-0.26,-0.82,0.31,0.92
27.860,-0.18,-0.83,0.35,0.91
27.870,-0.16,-0.79,0.37,0.88
27.880,-0.18,-0.74,0.34,0.84
27.890,-0.23,-0.65,0.26,0.74
27.900,-0.32,-0.55,0.23,0.68
27.910,-0.36,-0.46,0.34,0.68
27.920,-0.38,-0.37,0.51,0.74
27.930,-0.34,-0.31,0.58,0.75
27.940,-0.35,-0.30,0.49,0.67
27.950,-0.47,-0.27,0.33,0.63
27.960,-0.68,-0.22,0.19,0.74
27.970,-0.81,-0.18,0.17,0.84
27.980,-0.77,-0.08,0.26,0.82
27.990,-0.79,0.04,0.23,0.82
28.000,-0.77,0.07,0.02,0.77
28.011,-0.80,0.03,-0.05,0.80
28.020,-0.80,-0.14,0.13,0.82
28.030,-0.66,-0.48,0.39,0.91
28.041,-0.39,-0.72,0.63,1.03
28.051,-0.11,-0.60,0.75,0.97
28.061,0.15,-0.27,0.64,0.71
28.071,0.39,0.04,0.54,0.66
28.081,0.55,0.22,0.53,0.79
28.091,0.63,0.36,0.45,0.85
28.101,0.72,0.52,0.30,0.94
28.111,0.50,0.40,0.12,0.65
28.121,0.33,0.43,0.01,0.54
28.131,0.01,0.44,0.01,0.44
28.141,-0.31,0.29,-0.01,0.43
28.151,-0.58,0.09,-0.07,0.59
28.161,-0.94,-0.16,-0.02,0.95
28.171,-0.98,-0.11,0.16,1.00
28.181,-0.69,0.09,0.21,0.73
28.191,-0.74,-0.00,0.08,0.74
28.201,-0.70,-0.13,0.01,0.71
28.212,-0.55,-0.23,0.00,0.59
28.222,-0.39,-0.34,-0.09,0.52
28.232,-0.28,-0.34,-0.25,0.51
28.242,-0.16,-0.27,-0.31,0.44
28.252,-0.07,-0.17,-0.35,0.40
28.262,0.04,-0.08,-0.35,0.36
28.272,0.11,-0.07,-0.30,0.33
28.282,0.07,-0.15,-0.33,0.36
28.292,-0.06,-0.17,-0.32,0.37
28.302,-0.21,-0.10,-0.30,0.38
28.312,-0.36,-0.04,-0.31,0.48
28.322,-0.40,0.00,-0.30,0.50
28.332,-0.41,-0.02,-0.35,0.54
28.342,-0.44,-0.05,-0.43,0.62
28.352,-0.41,0.04,-0.42,0.59
28.362,-0.36,0.22,-0.37,0.56
28.372,-0.24,0.23,-0.31,0.45
28.383,-0.08,0.10,-0.28,0.31
28.393,0.08,-0.06,-0.21,0.23
28.403,0.18,-0.15,-0.20,0.30
28.413,0.23,-0.13,-0.20,0.33
28.423,0.22,-0.09,-0.29,0.37
28.433,0.18,-0.07,-0.38,0.42
28.443,0.14,-0.02,-0.41,0.43
28.453,0.10,0.02,-0.36,0.37
28.463,0.02,0.06,-0.38,0.39
28.473,-0.02,0.07,-0.43,0.43
28.483,-0.04,0.08,-0.41,0.42
28.493,-0.01,0.07,-0.33,0.34
28.503,-0.02,0.07,-0.24,0.25
28.513,-0.04,0.03,-0.19,0.20
28.523,0.02,0.02,-0.12,0.13
28.533,0.01,0.00,-0.11,0.11
28.543,0.04,-0.03,-0.14,0.15
28.554,0.06,-0.01,-0.21,0.22
28.564,0.01,0.03,-0.25,0.25
28.574,-0.02,0.04,-0.28,0.29
28.584,0.02,0.04,-0.30,0.30
28.594,0.03,0.03,-0.29,0.29
28.604,0.05,0.03,-0.24,0.25
28.614,0.08,0.05,-0.20,0.22
28.624,0.08,0.05,-0.18,0.20
28.634,0.07,0.03,-0.18,0.19
28.644,0.07,0.01,-0.12,0.14
28.654,0.07,0.02,-0.10,0.13
28.664,0.13,-0.03,0.07,0.15
28.674,0.36,0.21,-0.13,0.44
28.684,0.20,0.19,0.04,0.28
28.694,0.23,-0.00,0.10,0.25
28.704,0.22,0.06,-0.03,0.23
28.714,0.21,0.10,0.08,0.24
