time,ax,ay,az,atotal
0.000,0.10,-0.03,0.04,0.11
0.010,0.11,0.02,0.05,0.12
0.020,0.14,0.02,0.05,0.15
0.030,0.08,-0.04,0.08,0.12
0.040,0.02,-0.11,0.07,0.13
0.050,-0.02,-0.14,0.04,0.15
0.060,-0.01,-0.12,0.04,0.12
0.071,0.03,-0.08,0.05,0.10
0.080,0.03,-0.08,0.04,0.09
0.090,0.07,-0.06,0.07,0.11
0.101,0.11,-0.04,0.11,0.16
0.111,0.14,-0.04,0.09,0.17
0.121,0.17,-0.02,0.06,0.18
0.131,0.14,0.00,0.04,0.15
0.141,0.08,0.01,0.03,0.09
0.151,0.03,-0.01,0.01,0.03
0.161,-0.01,0.00,0.02,0.03
0.171,0.03,0.07,0.04,0.09
0.181,0.35,0.43,-0.04,0.56
0.191,-0.01,0.19,-0.10,0.22
0.201,-0.15,-0.16,-0.05,0.22
0.211,-0.08,-0.29,0.07,0.30
0.221,-0.01,-0.24,0.16,0.29
0.231,0.06,-0.14,0.14,0.21
0.241,0.08,-0.08,0.06,0.13
0.251,0.07,-0.04,0.01,0.08
0.261,0.07,-0.01,-0.01,0.08
0.272,0.09,-0.00,0.00,0.09
0.282,0.13,-0.02,0.01,0.13
0.292,0.14,0.00,0.00,0.14
0.302,0.13,0.03,-0.01,0.13
0.312,0.08,-0.02,-0.03,0.09
0.322,0.08,-0.04,0.00,0.09
0.332,0.13,-0.05,0.04,0.14
0.342,0.18,0.01,0.03,0.18
0.352,0.22,0.01,0.04,0.22
0.362,0.14,-0.10,0.06,0.18
0.372,0.12,-0.09,0.10,0.18
0.382,0.07,-0.12,0.07,0.16
0.392,0.05,-0.10,0.10,0.15
0.402,0.07,-0.13,0.16,0.21
0.412,0.06,-0.18,0.17,0.25
0.422,0.12,-0.13,0.14,0.22
0.432,0.15,-0.06,0.07,0.18
0.442,0.12,-0.03,0.02,0.13
0.452,0.11,0.00,0.03,0.11
0.463,0.10,0.02,0.03,0.11
0.473,0.10,0.00,0.03,0.10
0.483,0.14,-0.00,0.06,0.15
0.493,0.14,-0.01,0.08,0.17
0.503,0.18,-0.01,0.05,0.19
0.513,0.20,-0.03,0.03,0.21
0.523,0.14,-0.03,0.01,0.15
0.533,0.08,-0.05,0.02,0.10
0.543,0.04,-0.05,0.03,0.07
0.553,-0.01,-0.04,0.03,0.05
0.563,-0.04,-0.00,0.01,0.05
0.573,-0.01,0.05,-0.00,0.05
0.583,0.00,0.09,-0.01,0.09
0.593,0.01,0.08,-0.07,0.11
0.603,0.01,0.03,-0.09,0.09
0.614,-0.02,-0.03,-0.07,0.08
0.624,-0.03,-0.06,-0.03,0.07
0.634,0.01,-0.04,0.01,0.04
0.644,0.05,0.00,0.06,0.08
0.654,0.04,0.03,0.07,0.09
0.664,0.03,0.05,0.06,0.08
0.674,0.01,0.00,0.03,0.03
0.684,-0.01,-0.06,0.01,0.07
0.694,0.00,-0.10,0.07,0.12
0.704,0.07,-0.10,0.09,0.15
0.714,0.13,-0.04,0.05,0.14
0.724,0.14,0.03,-0.01,0.14
0.734,0.10,0.07,-0.03,0.13
0.744,0.00,0.06,-0.05,0.08
0.754,-0.07,0.04,-0.09,0.12
0.764,-0.10,-0.02,-0.09,0.14
0.774,-0.12,-0.06,-0.02,0.14
0.784,-0.07,-0.01,0.01,0.07
0.795,0.04,0.06,0.02,0.07
0.805,0.09,0.07,0.04,0.12
0.815,0.11,-0.02,0.03,0.11
0.825,0.09,-0.10,-0.01,0.13
0.835,0.05,-0.13,-0.06,0.15
0.845,0.03,-0.13,-0.07,0.14
0.855,0.03,-0.06,-0.03,0.07
0.865,0.01,0.01,-0.02,0.02
0.875,0.00,0.04,-0.04,0.05
0.885,-0.01,0.03,-0.05,0.06
0.895,-0.03,0.01,-0.06,0.06
0.905,-0.04,-0.02,-0.00,0.04
0.915,-0.01,-0.02,0.06,0.06
0.925,0.03,-0.02,0.06,0.07
0.935,0.04,-0.05,0.06,0.09
0.945,0.05,-0.04,-0.02,0.07
0.955,0.07,0.00,-0.05,0.08
0.966,0.07,-0.02,-0.06,0.09
0.976,0.05,-0.04,-0.05,0.08
0.986,0.05,-0.02,-0.01,0.06
0.996,0.07,-0.04,0.04,0.09
1.006,0.09,-0.07,0.06,0.13
1.016,0.15,-0.14,0.05,0.22
1.026,0.19,-0.15,0.03,0.24
1.036,0.28,-0.05,0.08,0.30
1.046,0.31,-0.09,0.07,0.33
1.056,0.31,0.03,0.07,0.32
1.066,0.27,0.06,0.06,0.28
1.076,0.20,0.03,0.04,0.20
1.086,0.14,-0.00,-0.01,0.14
1.096,0.16,-0.01,0.04,0.16
1.106,0.23,0.02,0.07,0.24
1.116,0.25,0.05,0.04,0.26
1.126,0.23,0.06,0.03,0.24
1.137,0.21,0.03,0.06,0.22
1.147,0.16,-0.03,0.04,0.17
1.157,0.11,-0.07,0.04,0.14
1.167,0.07,-0.07,0.06,0.12
1.177,0.04,-0.06,0.09,0.11
1.187,-0.01,-0.02,0.11,0.11
1.197,-0.07,-0.03,0.11,0.13
1.207,-0.02,-0.04,0.10,0.11
1.217,0.05,-0.01,0.09,0.10
1.227,0.10,0.02,0.05,0.12
1.237,0.13,0.00,0.00,0.13
1.247,0.15,-0.01,-0.04,0.15
1.257,0.13,-0.01,-0.02,0.13
1.267,0.12,-0.02,-0.00,0.12
1.277,0.07,-0.04,0.01,0.08
1.287,0.05,-0.08,-0.02,0.10
1.298,0.05,-0.08,-0.05,0.11
1.308,-0.02,-0.06,-0.04,0.07
1.318,-0.03,-0.05,-0.02,0.06
1.328,-0.01,-0.02,-0.04,0.04
1.338,-0.01,0.05,-0.05,0.07
1.348,-0.00,0.06,-0.10,0.12
1.358,-0.03,0.05,-0.13,0.14
1.368,-0.05,0.03,-0.10,0.12
1.378,-0.02,0.03,-0.12,0.12
1.388,-0.01,0.02,-0.13,0.14
1.398,-0.02,0.00,-0.14,0.14
1.408,-0.02,-0.02,-0.16,0.16
1.418,-0.03,-0.04,-0.16,0.17
1.428,-0.03,-0.04,-0.16,0.17
1.438,0.00,-0.02,-0.10,0.11
1.448,0.04,-0.00,-0.10,0.11
1.459,0.07,-0.00,-0.10,0.12
1.468,0.09,0.02,-0.07,0.12
1.478,0.11,-0.00,-0.09,0.15
1.489,0.09,-0.02,-0.08,0.12
1.499,0.08,-0.03,-0.04,0.10
1.509,0.07,-0.02,0.03,0.08
1.519,0.06,-0.05,0.02,0.08
1.529,0.05,-0.04,0.04,0.07
1.539,0.07,-0.02,0.04,0.08
1.549,0.04,-0.00,0.04,0.06
1.559,0.01,-0.03,0.03,0.04
1.569,-0.04,-0.01,0.03,0.05
1.579,-0.09,0.00,0.04,0.10
1.589,-0.10,0.00,0.03,0.10
1.599,-0.08,0.04,-0.00,0.09
1.609,-0.07,0.04,-0.03,0.09
1.619,-0.05,0.01,-0.04,0.07
1.629,-0.05,0.01,-0.03,0.06
1.639,-0.04,0.02,-0.01,0.05
1.649,-0.03,0.02,-0.04,0.05
1.660,-0.02,0.00,-0.06,0.07
1.670,-0.00,0.01,-0.05,0.05
1.680,0.02,0.01,-0.04,0.05
1.690,0.03,-0.02,-0.00,0.04
1.700,0.04,-0.05,0.06,0.09
1.710,0.07,-0.10,0.13,0.17
1.720,0.11,-0.11,0.16,0.22
1.730,0.14,-0.12,0.13,0.22
1.740,0.17,-0.08,0.11,0.21
1.750,0.18,-0.02,0.12,0.21
1.760,0.15,-0.00,0.10,0.18
1.770,0.15,-0.00,0.07,0.17
1.780,0.14,-0.01,0.03,0.14
1.790,0.15,-0.05,0.01,0.16
1.800,0.14,-0.06,-0.00,0.16
1.810,0.15,-0.08,0.02,0.17
1.821,0.15,-0.07,0.04,0.17
1.831,0.12,-0.03,0.05,0.13
1.841,0.10,0.00,-0.01,0.10
1.851,0.06,-0.00,-0.06,0.09
1.861,0.03,-0.02,-0.06,0.07
1.871,-0.03,-0.06,-0.02,0.07
1.881,-0.12,-0.02,-0.07,0.14
1.891,-0.06,0.11,-0.02,0.13
1.901,0.09,0.15,0.06,0.18
1.911,0.09,0.02,0.03,0.09
1.921,0.04,-0.09,-0.04,0.11
1.931,-0.00,-0.13,-0.04,0.13
1.941,-0.03,-0.08,-0.01,0.08
1.951,-0.04,-0.02,-0.00,0.04
1.961,-0.06,0.00,-0.03,0.07
1.971,-0.07,-0.04,0.00,0.08
1.981,-0.09,-0.08,0.02,0.12
1.992,-0.09,-0.04,0.03,0.10
2.002,-0.01,0.02,0.02,0.03
2.012,0.04,0.01,0.01,0.04
2.022,0.08,0.01,0.00,0.08
2.032,0.05,-0.03,-0.04,0.07
2.042,0.03,-0.07,-0.01,0.08
2.052,0.01,-0.06,-0.02,0.06
2.062,-0.02,-0.02,0.00,0.03
2.072,-0.03,0.00,0.05,0.06
2.082,-0.02,0.02,0.10,0.10
2.092,0.00,0.02,0.15,0.15
2.102,0.05,-0.01,0.18,0.19
2.112,0.11,-0.02,0.13,0.17
2.122,0.17,-0.03,0.11,0.21
2.132,0.20,-0.04,0.09,0.22
2.142,0.16,-0.06,0.08,0.18
2.152,0.06,-0.05,0.11,0.14
2.163,-0.01,-0.07,0.17,0.18
2.172,-0.03,-0.09,0.22,0.24
2.183,-0.02,-0.11,0.19,0.22
2.193,-0.03,-0.10,0.15,0.18
2.203,-0.08,-0.08,0.12,0.16
2.213,-0.09,-0.06,0.11,0.15
2.223,-0.13,-0.07,0.13,0.20
2.233,-0.17,-0.08,0.15,0.24
2.243,-0.17,-0.09,0.15,0.24
2.253,-0.15,-0.10,0.11,0.21
2.263,-0.16,-0.10,0.11,0.22
2.273,-0.19,-0.08,0.12,0.24
2.283,-0.23,-0.03,0.15,0.28
2.293,-0.25,0.01,0.16,0.30
2.303,-0.24,-0.01,0.12,0.26
2.313,-0.18,-0.05,0.08,0.21
2.323,-0.10,-0.05,0.09,0.14
2.333,-0.03,-0.07,0.10,0.12
2.344,0.01,-0.07,0.10,0.12
2.354,0.01,-0.09,0.13,0.16
2.364,-0.01,-0.09,0.15,0.18
2.374,-0.03,-0.09,0.16,0.19
2.384,-0.01,-0.07,0.19,0.21
2.394,-0.01,-0.06,0.24,0.25
2.404,-0.01,-0.07,0.29,0.30
2.414,0.01,-0.09,0.31,0.32
2.424,0.04,-0.09,0.28,0.30
2.434,0.03,-0.10,0.22,0.25
2.444,0.01,-0.10,0.22,0.24
2.454,-0.01,-0.13,0.23,0.27
2.464,-0.04,-0.13,0.23,0.27
2.474,-0.06,-0.12,0.22,0.26
2.484,-0.09,-0.08,0.19,0.23
2.494,-0.12,-0.06,0.15,0.20
2.504,-0.14,-0.05,0.11,0.18
2.515,-0.15,-0.02,0.11,0.19
2.524,-0.17,0.01,0.13,0.22
2.535,-0.20,-0.02,0.17,0.27
2.545,-0.23,-0.07,0.21,0.31
2.555,-0.24,-0.08,0.15,0.29
2.565,-0.23,-0.09,0.12,0.27
2.575,-0.22,-0.15,0.22,0.35
2.585,-0.17,-0.13,0.23,0.31
2.595,-0.17,-0.08,0.18,0.26
2.605,-0.17,-0.04,0.20,0.26
2.615,-0.21,-0.01,0.14,0.26
2.625,-0.31,-0.09,0.08,0.34
2.635,-0.35,-0.23,0.10,0.43
2.645,-0.32,-0.31,0.16,0.47
2.655,-0.25,-0.23,0.19,0.39
2.665,-0.17,-0.07,0.11,0.21
2.675,-0.08,-0.06,-0.01,0.10
2.685,-0.01,-0.11,-0.17,0.20
2.695,-0.09,-0.12,-0.32,0.36
2.706,-0.17,-0.14,-0.36,0.42
2.716,-0.10,-0.06,-0.19,0.23
2.726,0.03,0.05,-0.02,0.06
2.736,0.12,0.01,0.09,0.15
2.746,0.24,-0.18,0.15,0.34
2.756,0.40,-0.33,0.14,0.54
2.766,0.63,-0.19,0.07,0.66
2.776,0.87,0.26,-0.04,0.91
2.786,0.96,0.55,-0.11,1.11
2.796,0.87,0.55,-0.09,1.03
2.806,0.69,0.39,-0.06,0.80
2.816,0.55,0.12,-0.07,0.57
2.826,0.48,-0.06,-0.02,0.48
2.836,0.49,-0.04,-0.03,0.49
2.846,0.48,-0.03,-0.06,0.48
2.856,0.37,-0.01,-0.01,0.38
2.866,0.27,-0.04,0.09,0.28
2.877,0.18,-0.16,0.16,0.29
2.887,0.13,-0.15,0.13,0.24
2.897,0.10,0.04,0.11,0.16
2.907,0.12,0.22,0.16,0.30
2.917,0.09,0.24,0.22,0.34
2.927,0.09,0.04,0.30,0.32
2.937,0.13,-0.23,0.34,0.43
2.947,0.15,-0.45,0.35,0.59
2.957,0.28,-0.54,0.43,0.75
2.967,0.54,-0.50,0.51,0.90
2.977,0.78,-0.41,0.57,1.05
2.987,0.94,-0.25,0.54,1.12
2.997,1.01,-0.11,0.45,1.11
3.007,1.01,-0.02,0.37,1.08
3.017,0.94,-0.06,0.32,1.00
3.028,0.85,-0.10,0.29,0.90
3.038,0.74,-0.03,0.22,0.77
3.048,0.59,0.10,0.11,0.61
3.058,0.44,0.17,0.13,0.49
3.068,0.36,0.08,0.28,0.47
3.078,0.33,-0.10,0.44,0.56
3.088,0.31,-0.36,0.49,0.68
3.098,0.23,-0.51,0.45,0.72
3.108,0.17,-0.38,0.39,0.57
3.118,0.13,-0.15,0.28,0.34
3.128,0.12,-0.07,0.27,0.30
3.138,0.21,-0.15,0.41,0.48
3.148,0.30,-0.36,0.48,0.67
3.158,0.42,-0.55,0.48,0.84
3.168,0.52,-0.43,0.41,0.79
3.178,0.56,-0.13,0.17,0.60
3.188,0.56,-0.04,-0.16,0.58
3.198,0.33,-0.07,-0.47,0.58
3.208,-0.07,-0.21,-0.75,0.79
3.219,-0.47,-0.38,-0.94,1.12
3.229,-0.70,-0.52,-0.98,1.31
3.239,-0.71,-0.55,-0.88,1.26
3.249,-0.67,-0.59,-0.71,1.14
3.259,-0.70,-0.80,-0.55,1.19
3.269,-0.59,-1.03,-0.36,1.24
3.279,-0.22,-1.16,0.01,1.18
3.289,0.42,-1.20,0.53,1.37
3.299,1.09,-1.21,0.84,1.83
3.309,1.60,-1.24,0.87,2.21
3.319,1.86,-1.09,0.55,2.22
3.329,1.83,-0.86,0.05,2.02
3.339,1.51,-0.61,-0.30,1.66
3.349,1.01,-0.57,-0.46,1.25
3.359,0.56,-0.84,-0.40,1.09
3.369,0.22,-1.19,-0.31,1.25
3.379,0.02,-1.29,-0.03,1.29
3.389,0.03,-0.92,0.30,0.97
3.400,0.21,-0.46,0.39,0.64
3.410,0.29,-0.08,0.24,0.38
3.420,0.25,0.13,0.22,0.35
3.430,0.30,0.20,0.38,0.52
3.440,0.30,-0.04,0.52,0.60
3.450,0.25,-0.83,0.50,1.00
3.460,0.33,-1.48,0.37,1.56
3.470,0.51,-1.81,0.52,1.95
3.480,0.75,-2.01,0.78,2.28
3.490,1.00,-2.00,1.04,2.47
3.500,1.10,-1.56,1.15,2.23
3.510,0.92,-0.83,1.12,1.67
3.520,0.79,-0.30,0.80,1.16
3.530,1.21,-0.18,0.14,1.24
3.540,1.83,-0.21,-0.29,1.87
3.551,2.05,-0.42,-0.13,2.09
3.560,1.85,-0.82,0.29,2.05
3.571,1.65,-1.11,0.39,2.03
3.581,1.55,-1.31,0.44,2.08
3.591,1.50,-1.45,0.64,2.18
3.601,1.39,-1.55,0.92,2.28
3.611,1.26,-1.67,1.00,2.32
3.621,1.13,-1.85,0.85,2.33
3.631,1.05,-1.91,0.52,2.24
3.641,0.84,-1.76,0.19,1.96
3.651,0.48,-1.43,0.02,1.50
3.661,0.33,-0.84,0.13,0.91
3.671,0.39,0.19,0.30,0.52
3.681,0.47,1.41,0.31,1.51
3.691,0.40,2.38,0.64,2.49
3.701,0.42,2.87,1.02,3.07
3.711,0.40,3.16,0.98,3.34
3.721,-0.18,3.43,0.18,3.44
3.732,-1.26,3.37,-1.16,3.78
3.742,-2.25,3.18,-2.04,4.40
3.752,-3.02,2.94,-2.23,4.76
3.762,-3.60,2.58,-1.87,4.81
3.772,-3.88,2.23,-1.40,4.69
3.782,-3.78,2.08,-1.29,4.51
3.792,-3.25,2.30,-1.37,4.21
3.802,-2.26,2.65,-1.45,3.77
3.812,-0.93,2.94,-1.31,3.35
3.822,0.34,3.21,-1.04,3.39
3.832,1.25,3.36,-0.76,3.66
3.842,1.70,3.17,-0.56,3.64
3.852,1.62,2.75,-0.50,3.23
3.862,1.22,2.14,-0.26,2.48
3.872,0.80,1.49,0.13,1.70
3.882,0.38,0.90,0.41,1.06
3.892,-0.02,0.40,0.41,0.57
3.902,-0.30,-0.00,0.27,0.40
3.913,-0.36,-0.17,0.08,0.41
3.923,-0.24,-0.24,-0.11,0.36
3.933,-0.14,-0.37,-0.22,0.46
3.943,-0.22,-0.55,-0.25,0.64
3.953,-0.26,-0.76,-0.27,0.85
3.963,-0.24,-0.99,-0.34,1.07
3.973,-0.11,-1.18,-0.36,1.24
3.983,-0.08,-1.32,-0.20,1.34
3.993,-0.17,-1.39,-0.01,1.40
4.003,-0.31,-1.34,0.08,1.38
4.013,-0.42,-1.21,0.07,1.28
4.023,-0.52,-1.01,0.05,1.13
4.033,-0.69,-0.87,0.08,1.11
4.043,-0.90,-0.81,0.19,1.22
4.053,-1.11,-0.82,0.27,1.40
4.063,-1.27,-0.83,0.32,1.55
4.074,-1.22,-0.83,0.39,1.52
4.084,-1.00,-0.83,0.39,1.36
4.094,-0.73,-0.86,0.29,1.16
4.104,-0.50,-0.94,0.26,1.10
4.114,-0.20,-1.01,0.34,1.08
4.124,0.09,-1.02,0.33,1.07
4.134,0.30,-1.00,0.16,1.06
4.144,0.44,-1.01,-0.07,1.11
4.154,0.42,-1.02,-0.30,1.14
4.164,0.19,-0.92,-0.38,1.01
4.174,-0.03,-0.76,-0.27,0.81
4.184,-0.20,-0.70,0.20,0.75
4.194,-0.26,-0.76,0.54,0.97
4.204,-0.13,-0.91,0.54,1.07
4.214,-0.00,-1.17,0.52,1.28
4.224,0.10,-1.54,0.48,1.61
4.234,0.17,-1.95,0.36,1.99
4.244,0.35,-2.53,0.17,2.56
4.255,0.61,-3.08,0.09,3.14
4.265,0.66,-3.39,0.30,3.47
4.275,0.67,-3.36,0.53,3.46
4.285,0.64,-3.03,0.67,3.17
4.295,0.46,-2.44,0.70,2.58
4.305,0.22,-1.84,0.69,1.98
4.315,0.02,-1.35,0.56,1.47
4.325,0.07,-1.07,0.38,1.14
4.335,0.44,-1.00,0.19,1.11
4.345,0.78,-1.00,0.18,1.28
4.355,0.95,-0.81,0.12,1.25
4.365,0.95,-0.50,-0.03,1.08
4.375,0.80,-0.30,-0.01,0.85
4.385,0.40,-0.31,0.36,0.62
4.395,-0.07,-0.46,0.89,1.00
4.405,-0.28,-0.60,1.28,1.44
4.415,-0.16,-0.72,1.50,1.68
4.425,0.06,-0.88,1.58,1.81
4.436,0.27,-1.09,1.61,1.96
4.446,0.47,-1.21,1.70,2.14
4.456,0.77,-1.28,1.82,2.35
4.466,1.09,-1.43,1.92,2.63
4.476,1.20,-1.58,1.99,2.81
4.486,1.13,-1.40,1.74,2.50
4.496,0.79,-0.50,0.64,1.14
4.506,0.56,0.68,0.08,0.89
4.516,0.66,2.06,0.37,2.20
4.526,0.02,3.11,0.42,3.14
4.536,-1.38,3.84,-0.35,4.09
4.546,-2.27,5.14,-1.30,5.76
4.556,-2.72,6.27,-1.81,7.07
4.566,-2.79,5.66,-1.78,6.56
4.576,-2.31,3.69,-1.29,4.54
4.586,-1.19,2.46,-0.35,2.75
4.596,0.39,3.21,-0.13,3.24
4.607,1.73,5.51,-0.42,5.79
4.617,1.81,6.72,-0.33,6.97
4.627,0.23,5.39,-0.53,5.42
4.637,-0.84,2.93,-0.66,3.12
4.647,-0.79,1.38,-0.67,1.72
4.657,-0.87,0.60,-0.03,1.06
4.667,-0.98,0.32,0.97,1.41
4.677,-0.96,0.37,1.68,1.97
4.687,-0.74,0.63,1.81,2.06
4.697,-0.35,0.85,1.40,1.67
4.707,0.17,1.01,0.69,1.24
4.717,0.65,1.00,-0.07,1.20
4.727,0.86,0.59,-0.64,1.22
4.737,0.84,0.00,-0.87,1.21
4.747,0.85,-0.57,-0.88,1.35
4.757,0.77,-1.10,-0.83,1.58
4.767,0.71,-1.52,-0.76,1.84
4.778,0.66,-1.66,-0.79,1.95
4.788,0.54,-1.57,-0.85,1.86
4.798,0.43,-1.43,-0.85,1.71
4.808,0.31,-1.19,-0.77,1.45
4.818,0.23,-0.86,-0.59,1.07
4.828,0.18,-0.57,-0.28,0.66
4.838,0.21,-0.37,-0.00,0.43
4.848,0.27,-0.33,0.06,0.43
4.858,0.22,-0.44,0.14,0.51
4.868,0.25,-0.61,0.30,0.72
4.878,0.27,-0.67,0.32,0.79
4.888,0.37,-0.61,0.20,0.74
4.898,0.41,-0.47,-0.02,0.63
4.908,0.31,-0.32,-0.29,0.54
4.918,0.23,-0.21,-0.49,0.59
4.929,0.15,-0.12,-0.60,0.63
4.938,0.05,-0.07,-0.55,0.56
4.949,0.05,-0.08,-0.44,0.45
4.959,0.10,-0.09,-0.33,0.35
4.969,0.08,-0.18,-0.34,0.39
4.979,0.00,-0.38,-0.46,0.59
4.989,-0.05,-0.77,-0.71,1.04
4.999,-0.13,-1.22,-0.81,1.47
5.009,-0.18,-1.58,-0.79,1.78
5.019,-0.22,-1.89,-0.87,2.09
5.029,-0.25,-2.04,-0.96,2.27
5.039,-0.24,-2.08,-0.84,2.26
5.049,-0.12,-2.11,-0.46,2.16
5.059,0.22,-1.94,-0.18,1.96
5.069,0.57,-1.62,-0.30,1.74
5.079,0.70,-1.41,-0.46,1.64
5.089,0.84,-1.50,-0.44,1.77
5.099,1.17,-1.87,-0.17,2.21
5.109,1.61,-2.19,0.06,2.72
5.120,1.67,-2.21,0.15,2.77
5.130,1.54,-1.68,0.30,2.30
5.140,1.49,-0.73,0.58,1.75
5.150,1.35,0.07,0.79,1.57
5.160,1.21,0.39,0.64,1.43
5.170,1.11,0.16,0.35,1.17
5.180,0.97,-0.40,-0.14,1.06
5.190,0.77,-0.91,-0.65,1.36
5.200,0.56,-1.47,-0.81,1.77
5.210,0.37,-2.18,-0.47,2.26
5.220,0.28,-2.68,0.14,2.69
5.230,0.22,-2.76,0.56,2.83
5.240,0.36,-2.41,0.77,2.55
5.250,0.56,-1.53,0.89,1.85
5.261,0.71,-0.42,0.74,1.11
5.270,1.06,0.31,0.29,1.14
5.281,1.46,0.32,-0.27,1.52
5.291,1.57,-0.07,-0.74,1.74
5.301,1.48,-0.58,-0.84,1.80
5.311,1.50,-0.88,-0.30,1.77
5.321,1.36,-0.49,0.60,1.57
5.331,0.83,0.47,1.01,1.40
5.341,0.10,1.59,0.54,1.68
5.351,-0.90,2.74,-0.36,2.91
5.361,-1.55,3.35,-1.05,3.84
5.371,-1.79,3.33,-1.46,4.06
5.381,-2.14,3.28,-1.99,4.39
5.391,-2.88,3.17,-2.57,5.00
5.401,-3.75,3.09,-2.60,5.51
5.411,-4.42,3.50,-1.57,5.85
5.421,-4.47,4.09,0.65,6.09
5.431,-3.47,4.87,2.71,6.56
5.441,-2.07,5.83,2.78,6.78
5.451,-0.66,6.53,1.20,6.68
5.461,0.88,6.59,-0.13,6.65
5.471,2.14,5.87,-0.64,6.28
5.482,2.66,4.43,-0.61,5.20
5.492,2.55,2.68,-0.23,3.70
5.502,2.22,1.13,0.15,2.50
5.514,1.77,-0.07,0.36,1.80
5.522,1.26,-0.86,0.37,1.57
5.532,0.71,-1.26,0.19,1.46
5.542,0.16,-1.36,-0.02,1.37
5.552,-0.35,-1.31,-0.17,1.37
5.562,-0.71,-1.30,-0.25,1.50
5.572,-0.97,-1.38,-0.19,1.70
5.582,-1.20,-1.49,-0.15,1.92
5.592,-1.42,-1.59,-0.14,2.14
5.602,-1.57,-1.70,-0.08,2.32
5.612,-1.54,-1.82,-0.09,2.38
5.622,-1.31,-1.94,-0.06,2.34
5.632,-1.03,-2.00,-0.13,2.25
5.643,-0.74,-1.93,-0.28,2.09
5.653,-0.53,-1.79,-0.34,1.90
5.663,-0.47,-1.61,-0.34,1.71
5.673,-0.49,-1.44,-0.37,1.56
5.683,-0.62,-1.26,-0.39,1.46
5.693,-0.75,-1.11,-0.37,1.39
5.703,-0.81,-0.96,-0.35,1.31
5.713,-0.91,-0.77,-0.26,1.23
5.723,-1.04,-0.61,0.00,1.21
5.733,-1.08,-0.49,0.29,1.22
5.743,-1.01,-0.38,0.65,1.26
5.753,-0.85,-0.24,1.00,1.33
5.763,-0.45,-0.05,1.11,1.20
5.773,0.21,0.05,0.90,0.93
5.783,0.92,-0.08,0.51,1.05
5.793,1.32,-0.40,0.09,1.38
5.803,1.26,-0.85,0.07,1.52
5.813,1.00,-1.21,0.30,1.60
5.824,0.80,-1.30,0.53,1.61
5.834,0.68,-1.26,0.70,1.59
5.844,0.54,-1.24,0.67,1.51
5.854,0.34,-1.17,0.46,1.30
5.864,0.16,-1.20,0.24,1.23
5.874,0.03,-1.22,0.30,1.26
5.884,-0.02,-1.27,0.53,1.38
5.894,-0.01,-1.35,0.64,1.49
5.904,0.04,-1.47,0.50,1.56
5.914,0.12,-1.66,0.31,1.69
5.924,0.13,-1.83,0.02,1.83
5.934,0.19,-1.92,-0.43,1.98
5.944,0.32,-1.97,-0.84,2.16
5.954,0.36,-2.09,-1.12,2.39
5.964,0.05,-2.35,-1.15,2.62
5.975,-0.43,-2.79,-0.96,2.98
5.984,-0.72,-3.20,-0.51,3.32
5.994,-0.77,-3.35,0.06,3.43
6.005,-0.59,-3.22,0.70,3.35
6.015,-0.45,-2.87,1.26,3.16
6.025,-0.39,-2.36,1.58,2.87
6.035,-0.29,-1.87,1.70,2.54
6.045,-0.11,-1.58,1.68,2.31
6.055,0.29,-1.55,1.66,2.29
6.065,0.89,-1.56,1.46,2.31
6.075,1.44,-1.62,0.96,2.37
6.085,1.65,-1.80,0.83,2.59
6.095,1.68,-2.06,0.98,2.83
6.105,1.65,-2.33,1.11,3.06
6.115,1.35,-1.61,0.27,2.11
6.125,0.66,-0.20,-0.25,0.73
6.135,0.35,1.67,-0.10,1.71
6.145,-0.48,3.44,0.06,3.48
6.155,-2.21,4.54,-1.47,5.26
6.166,-3.06,6.31,-3.57,7.87
6.175,-3.63,8.21,-4.01,9.83
6.186,-3.63,8.96,-3.80,10.38
6.196,-2.98,7.72,-3.02,8.81
6.206,-1.84,5.28,-1.41,5.77
6.216,-0.30,3.25,0.20,3.27
6.226,0.90,1.94,1.13,2.42
6.236,1.86,1.71,1.48,2.92
6.246,2.68,2.78,1.51,4.14
6.256,2.67,4.58,1.28,5.46
6.266,1.84,5.69,0.89,6.05
6.276,0.76,5.42,0.37,5.49
6.286,-0.15,4.33,-0.07,4.33
6.296,-0.73,3.01,-0.14,3.10
6.306,-1.00,1.93,-0.04,2.18
6.317,-1.00,0.94,0.21,1.39
6.326,-0.77,0.31,0.44,0.94
6.336,-0.43,-0.05,0.58,0.72
6.347,-0.09,-0.16,0.55,0.58
6.357,0.19,-0.09,0.27,0.34
6.367,0.43,0.02,-0.05,0.43
6.377,0.55,-0.06,-0.26,0.61
6.387,0.56,-0.29,-0.50,0.81
6.397,0.38,-0.60,-0.68,0.99
6.407,0.19,-0.95,-0.73,1.21
6.417,0.07,-1.39,-0.66,1.54
6.427,0.12,-1.78,-0.56,1.87
6.437,0.23,-2.07,-0.56,2.16
6.447,0.38,-2.22,-0.63,2.34
6.457,0.67,-2.17,-0.72,2.38
6.467,0.98,-1.87,-0.83,2.27
6.477,1.20,-1.47,-0.90,2.10
6.487,1.19,-1.17,-0.86,1.88
6.497,1.05,-1.02,-0.73,1.64
6.508,0.88,-1.07,-0.50,1.47
6.518,0.74,-1.20,-0.30,1.44
6.528,0.58,-1.28,-0.26,1.43
6.538,0.36,-1.21,-0.48,1.35
6.548,0.13,-1.00,-0.62,1.18
6.558,-0.04,-0.77,-0.68,1.03
6.568,-0.21,-0.71,-0.57,0.94
6.578,-0.31,-0.86,-0.31,0.97
6.588,-0.22,-1.03,0.05,1.06
6.598,-0.07,-1.23,0.44,1.31
6.608,0.32,-1.21,0.67,1.42
6.618,0.94,-0.98,0.71,1.53
6.628,1.48,-0.80,0.75,1.84
6.638,1.80,-0.82,0.80,2.13
6.648,1.91,-1.02,0.78,2.31
6.658,1.77,-1.47,0.52,2.36
6.668,1.54,-2.06,0.24,2.58
6.679,1.49,-2.49,0.24,2.91
6.689,1.41,-2.61,0.26,2.98
6.699,1.12,-2.52,0.20,2.77
6.709,0.86,-2.27,0.09,2.43
6.719,0.78,-1.78,0.04,1.94
6.729,0.74,-1.05,-0.17,1.29
6.739,0.48,-0.64,-0.62,1.01
6.749,0.22,-0.66,-0.88,1.12
6.759,0.16,-0.92,-0.88,1.28
6.769,0.32,-1.27,-0.47,1.40
6.779,0.83,-1.56,0.05,1.77
6.789,1.42,-1.84,0.58,2.40
6.799,1.94,-1.93,0.89,2.88
6.809,2.29,-1.77,0.92,3.04
6.819,2.44,-1.79,0.70,3.11
6.829,2.27,-1.95,0.17,2.99
6.839,1.75,-2.19,-0.46,2.84
6.850,1.07,-2.30,-0.75,2.65
6.860,0.42,-2.18,-0.90,2.40
6.870,0.13,-1.92,-0.75,2.06
6.880,-0.27,-1.13,-0.59,1.30
6.890,-1.48,0.20,-1.02,1.81
6.900,-3.40,1.63,-1.24,3.96
6.910,-4.64,2.57,-0.32,5.31
6.920,-4.04,3.03,1.34,5.22
6.930,-2.81,3.63,1.67,4.88
6.940,-1.89,4.60,0.54,5.00
6.950,-1.08,6.02,-0.77,6.17
6.960,-0.57,7.44,-1.27,7.57
6.970,-0.15,8.11,-1.12,8.19
6.980,0.19,7.54,-0.33,7.55
6.990,0.24,6.29,0.05,6.30
7.000,0.13,4.92,-0.03,4.93
7.010,0.24,3.92,-0.14,3.93
7.021,0.39,3.27,-0.26,3.30
7.030,0.38,2.78,-0.16,2.81
7.041,0.18,2.32,-0.12,2.33
7.051,-0.25,1.88,-0.15,1.90
7.061,-0.73,1.55,0.03,1.71
7.071,-1.07,1.25,0.33,1.68
7.081,-1.27,1.00,0.52,1.70
7.091,-1.41,0.75,0.69,1.74
7.101,-1.61,0.60,0.53,1.80
7.111,-1.62,0.49,0.11,1.70
7.121,-1.35,0.28,-0.41,1.44
7.131,-0.99,-0.11,-0.88,1.33
7.141,-0.80,-0.70,-1.03,1.48
7.151,-0.68,-1.39,-0.91,1.79
7.161,-0.50,-2.03,-0.82,2.25
7.171,-0.33,-2.51,-0.70,2.63
7.181,-0.26,-2.76,-0.54,2.83
7.191,-0.25,-2.74,-0.45,2.79
7.201,-0.22,-2.54,-0.37,2.57
7.212,-0.29,-2.22,-0.29,2.26
7.222,-0.48,-1.84,-0.20,1.92
7.232,-0.80,-1.48,-0.07,1.68
7.242,-1.09,-1.16,0.08,1.60
7.252,-1.36,-0.90,0.21,1.65
7.262,-1.45,-0.78,0.26,1.66
7.272,-1.35,-0.77,0.29,1.58
7.282,-1.12,-0.84,0.32,1.43
7.292,-0.86,-0.91,0.27,1.28
7.302,-0.71,-0.95,0.17,1.20
7.312,-0.65,-1.04,0.25,1.25
7.322,-0.58,-1.10,0.41,1.31
7.332,-0.40,-1.09,0.58,1.30
7.342,-0.10,-1.08,0.70,1.29
7.353,0.29,-1.07,0.50,1.22
7.362,0.66,-1.08,0.12,1.27
7.372,0.96,-1.13,-0.10,1.48
7.383,1.25,-1.20,-0.06,1.74
7.393,1.41,-1.35,0.02,1.95
7.403,1.27,-1.39,0.02,1.88
7.413,0.96,-1.42,0.07,1.71
7.423,0.64,-1.46,0.21,1.61
7.433,0.29,-1.54,0.32,1.60
7.443,0.09,-1.75,0.29,1.78
7.453,0.09,-2.06,-0.02,2.07
7.463,0.22,-2.39,-0.31,2.42
7.473,0.31,-2.71,-0.46,2.76
7.483,0.32,-2.99,-0.29,3.02
7.493,0.30,-3.17,0.09,3.19
7.503,0.18,-2.95,0.65,3.03
7.513,-0.03,-2.34,1.23,2.65
7.523,-0.22,-1.61,1.62,2.30
7.533,-0.17,-0.91,1.66,1.90
7.543,0.08,-0.27,1.29,1.33
7.554,0.44,0.12,0.78,0.90
7.564,0.91,0.18,0.29,0.97
7.574,1.16,-0.11,0.04,1.16
7.584,1.03,-0.70,0.14,1.25
7.594,0.59,-1.35,0.53,1.57
7.604,-0.01,-1.74,0.85,1.94
7.614,-0.56,-2.01,1.01,2.32
7.624,-0.85,-2.15,1.23,2.61
7.634,-0.74,-1.96,1.59,2.63
7.644,-0.20,-1.57,1.93,2.49
7.654,0.27,-1.18,1.86,2.22
7.664,0.29,-0.49,1.06,1.21
7.674,-0.24,0.56,0.14,0.63
7.684,0.12,2.09,0.23,2.10
7.694,0.14,3.54,0.24,3.55
7.704,-1.68,3.88,-0.36,4.24
7.714,-3.28,4.21,-1.39,5.52
7.724,-3.56,4.57,-1.92,6.10
7.735,-3.24,3.97,-1.52,5.34
7.745,-1.87,2.64,-0.80,3.33
7.755,0.02,1.59,0.36,1.63
7.765,1.75,2.09,0.47,2.76
7.775,3.84,4.87,-0.69,6.24
7.785,4.85,8.13,-1.50,9.59
7.795,3.33,9.01,-1.71,9.75
7.805,0.77,6.60,-1.83,6.89
7.816,-0.79,3.83,-1.60,4.23
7.825,-1.42,2.12,-0.62,2.63
7.835,-1.83,1.13,0.68,2.26
7.845,-2.09,0.67,1.83,2.85
7.855,-1.96,0.45,2.50,3.21
7.865,-1.28,0.42,2.53,2.86
7.875,-0.36,0.66,1.92,2.06
7.885,0.50,1.01,0.91,1.45
7.895,0.91,1.07,-0.10,1.41
7.906,0.93,0.68,-0.82,1.41
7.916,0.70,-0.01,-1.11,1.31
7.926,0.43,-0.66,-0.98,1.26
7.936,0.40,-1.15,-0.76,1.43
7.946,0.43,-1.57,-0.70,1.77
7.956,0.45,-1.92,-0.74,2.11
7.966,0.44,-2.10,-0.70,2.25
7.976,0.49,-2.15,-0.70,2.31
7.986,0.55,-2.13,-0.77,2.33
7.996,0.62,-1.89,-0.85,2.16
8.006,0.74,-1.38,-0.89,1.81
8.016,0.88,-0.84,-0.91,1.52
8.026,0.96,-0.44,-0.90,1.39
8.036,0.86,-0.32,-0.84,1.25
8.046,0.78,-0.40,-0.62,1.08
8.057,0.76,-0.49,-0.47,1.02
8.066,0.74,-0.57,-0.34,1.00
8.077,0.69,-0.59,-0.17,0.93
8.087,0.72,-0.50,-0.07,0.88
8.097,0.74,-0.31,-0.20,0.83
8.107,0.64,-0.19,-0.26,0.72
8.117,0.40,-0.04,-0.26,0.48
8.127,0.15,0.19,-0.18,0.30
8.137,-0.10,0.42,-0.04,0.43
8.147,-0.38,0.37,0.19,0.56
8.157,-0.47,0.03,0.61,0.76
8.167,-0.39,-0.51,0.84,1.05
8.177,-0.24,-1.04,0.67,1.26
8.187,-0.18,-1.39,0.27,1.42
8.197,-0.21,-1.64,-0.16,1.67
8.207,-0.23,-1.92,-0.34,1.96
8.217,-0.14,-2.14,-0.30,2.17
8.227,-0.04,-2.21,-0.38,2.24
8.238,0.07,-2.04,-0.41,2.08
8.248,0.41,-1.68,-0.34,1.77
8.258,0.92,-1.44,-0.23,1.73
8.268,1.25,-1.46,-0.06,1.93
8.278,1.50,-1.69,0.03,2.26
8.288,1.73,-1.99,0.03,2.64
8.298,1.93,-2.06,0.13,2.82
8.308,2.14,-1.75,0.19,2.77
8.318,2.28,-1.21,0.19,2.59
8.328,2.22,-0.79,0.28,2.37
8.338,1.96,-0.56,0.41,2.08
8.348,1.54,-0.55,0.51,1.72
8.358,1.22,-0.69,0.58,1.51
8.368,1.05,-0.95,0.47,1.49
8.378,0.93,-1.42,0.57,1.79
8.388,0.93,-1.87,0.77,2.22
8.398,0.77,-2.23,0.64,2.44
8.409,0.74,-2.65,0.38,2.78
8.419,1.01,-2.79,0.13,2.97
8.429,1.37,-2.56,0.05,2.91
8.439,1.71,-2.11,0.01,2.71
8.449,1.82,-1.55,-0.24,2.40
8.459,1.46,-1.22,-0.64,2.01
8.469,0.79,-0.75,-0.59,1.24
8.479,0.03,0.15,-0.23,0.28
8.489,-0.64,1.29,-0.15,1.45
8.499,-1.04,2.47,-0.39,2.71
8.509,-1.01,3.45,-0.11,3.60
8.519,-0.88,4.27,0.18,4.37
8.529,-1.08,5.16,-0.74,5.33
8.539,-1.70,6.04,-2.39,6.72
8.549,-2.84,6.55,-3.78,8.08
8.559,-4.27,6.36,-3.71,8.51
8.569,-5.06,5.77,-1.79,7.88
8.579,-4.53,5.10,0.40,6.83
8.589,-3.41,4.50,1.03,5.74
8.600,-2.55,4.20,-0.08,4.92
8.609,-1.44,4.01,-1.13,4.41
8.620,-0.19,3.70,-1.31,3.92
8.630,0.89,2.93,-0.79,3.16
8.640,1.57,1.99,-0.05,2.54
8.650,1.67,1.16,0.59,2.11
8.660,1.34,0.49,1.07,1.78
8.670,0.84,0.09,1.15,1.43
8.680,0.60,0.05,0.82,1.02
8.690,0.53,0.28,0.36,0.70
8.700,0.38,0.45,-0.07,0.59
8.710,-0.04,0.34,-0.37,0.51
8.721,-0.55,0.02,-0.34,0.65
8.730,-0.89,-0.42,-0.15,0.99
8.740,-1.14,-0.86,-0.01,1.43
8.750,-1.27,-1.17,-0.06,1.73
8.761,-1.33,-1.46,-0.17,1.98
8.771,-1.34,-1.70,-0.25,2.17
8.781,-1.16,-1.91,-0.29,2.26
8.791,-0.83,-2.15,-0.29,2.32
8.801,-0.59,-2.20,-0.30,2.29
8.811,-0.36,-2.11,-0.38,2.18
8.821,-0.16,-1.96,-0.47,2.03
8.831,-0.03,-1.77,-0.41,1.81
8.841,-0.04,-1.59,-0.27,1.62
8.851,-0.22,-1.42,-0.11,1.44
8.861,-0.41,-1.31,-0.00,1.38
8.871,-0.52,-1.26,0.08,1.36
8.881,-0.47,-1.23,0.16,1.33
8.891,-0.33,-1.25,0.19,1.31
8.901,-0.14,-1.25,0.22,1.28
8.911,-0.02,-1.21,0.30,1.25
8.921,0.05,-1.16,0.46,1.24
8.931,0.10,-1.12,0.66,1.30
8.941,0.20,-1.16,0.76,1.40
8.951,0.35,-1.26,0.65,1.46
8.962,0.39,-1.47,0.55,1.62
8.972,0.37,-1.68,0.45,1.78
8.982,0.35,-1.81,0.34,1.87
8.992,0.31,-1.80,0.30,1.85
9.002,0.16,-1.65,0.50,1.73
9.012,-0.11,-1.39,0.52,1.48
9.022,-0.23,-1.05,0.17,1.09
9.032,-0.38,-0.76,-0.07,0.86
9.042,-0.47,-0.69,-0.18,0.85
9.052,-0.42,-0.93,-0.14,1.03
9.062,-0.29,-1.29,-0.06,1.32
9.072,-0.22,-1.52,0.05,1.54
9.082,-0.31,-1.74,0.20,1.78
9.092,-0.44,-1.75,0.32,1.83
9.102,-0.43,-1.50,0.35,1.60
9.112,-0.19,-1.20,0.26,1.24
9.123,0.13,-1.11,0.07,1.12
9.133,0.21,-1.24,-0.12,1.27
9.143,0.10,-1.47,-0.20,1.49
9.153,-0.03,-1.76,-0.03,1.76
9.163,-0.06,-1.99,0.41,2.03
9.173,-0.04,-1.98,0.82,2.14
9.183,-0.01,-1.64,0.93,1.88
9.193,0.09,-1.24,0.89,1.53
9.203,0.45,-1.05,1.06,1.56
9.213,0.85,-1.10,1.29,1.90
9.223,1.22,-1.38,1.40,2.31
9.233,1.47,-1.82,1.39,2.73
9.243,1.66,-2.31,1.37,3.15
9.253,1.73,-2.70,1.22,3.44
9.263,1.74,-2.82,0.92,3.44
9.273,1.57,-2.35,0.49,2.87
9.284,1.07,-1.06,-0.69,1.66
9.293,1.16,1.13,-0.78,1.80
9.304,0.90,3.55,-0.91,3.77
9.314,-0.81,4.84,-1.13,5.03
9.324,-2.80,5.71,-1.84,6.62
9.334,-4.51,6.80,-2.31,8.48
9.344,-5.54,6.61,-2.06,8.86
9.354,-4.42,4.95,-1.08,6.73
9.364,-2.84,2.56,0.94,3.93
9.374,-1.21,1.21,2.07,2.69
9.384,1.35,2.53,1.84,3.41
9.394,3.40,5.82,1.86,6.99
9.404,3.35,7.53,1.54,8.38
9.414,2.14,6.06,0.29,6.43
9.424,1.12,4.13,-0.79,4.35
9.434,0.57,3.12,-0.73,3.26
9.444,0.33,2.71,0.09,2.73
9.455,-0.07,2.57,0.90,2.73
9.464,-0.62,2.48,1.35,2.89
9.475,-0.75,2.31,1.18,2.70
9.485,-0.67,2.14,0.54,2.30
9.495,-0.52,1.93,-0.14,2.01
9.505,-0.42,1.58,-0.58,1.73
9.515,-0.37,1.09,-0.80,1.40
9.525,-0.13,0.55,-0.84,1.01
9.535,0.14,-0.08,-0.78,0.80
9.545,0.28,-0.64,-0.87,1.12
9.555,0.39,-1.09,-1.00,1.54
9.565,0.44,-1.40,-1.14,1.86
9.575,0.29,-1.63,-1.25,2.08
9.585,0.01,-1.85,-1.30,2.26
9.595,-0.25,-1.92,-1.29,2.33
9.606,-0.40,-1.91,-1.15,2.27
9.615,-0.35,-1.86,-0.92,2.11
9.626,-0.26,-1.83,-0.71,1.98
9.635,-0.15,-1.74,-0.45,1.81
9.646,0.05,-1.60,-0.29,1.63
9.656,0.27,-1.40,-0.27,1.46
9.666,0.45,-1.18,-0.31,1.30
9.676,0.63,-0.95,-0.32,1.18
9.686,0.78,-0.79,-0.36,1.17
9.696,0.83,-0.74,-0.46,1.21
9.706,0.71,-0.91,-0.56,1.28
9.716,0.44,-1.13,-0.52,1.32
9.726,0.20,-1.22,-0.51,1.34
9.736,0.06,-1.12,-0.45,1.21
9.746,-0.09,-0.99,-0.36,1.05
9.756,-0.21,-0.86,-0.29,0.94
9.766,-0.29,-0.75,-0.34,0.87
9.776,-0.29,-0.70,-0.44,0.88
9.786,-0.29,-0.79,-0.54,1.00
9.796,-0.27,-0.96,-0.53,1.13
9.807,-0.20,-1.15,-0.37,1.22
9.817,-0.08,-1.46,-0.14,1.47
9.827,0.02,-1.97,0.07,1.98
9.837,0.12,-2.48,0.28,2.50
9.847,0.23,-2.71,0.51,2.77
9.857,0.52,-2.59,0.49,2.68
9.867,0.98,-2.21,0.32,2.43
9.877,1.38,-1.64,-0.01,2.14
9.887,1.55,-1.20,-0.18,1.97
9.897,1.37,-1.07,-0.21,1.75
9.907,0.94,-1.33,-0.28,1.65
9.917,0.68,-1.84,-0.19,1.97
9.927,0.83,-2.15,0.19,2.32
9.937,1.04,-2.10,0.56,2.41
9.947,1.29,-1.90,0.75,2.42
9.957,1.75,-1.49,0.75,2.42
9.967,2.08,-0.65,0.94,2.38
9.977,1.92,0.18,1.38,2.37
9.988,1.69,0.56,1.73,2.48
9.998,1.61,0.46,1.44,2.21
10.008,1.50,-0.04,0.87,1.74
10.018,1.16,-0.72,0.32,1.40
10.028,0.89,-1.34,-0.01,1.61
10.038,0.83,-1.81,0.01,1.99
10.048,0.80,-1.95,0.07,2.11
10.058,0.79,-1.78,0.18,1.96
10.068,0.77,-1.34,0.47,1.61
10.078,0.73,-1.02,0.91,1.55
10.088,0.78,-1.01,1.09,1.68
10.098,0.90,-1.13,0.89,1.70
10.108,0.99,-0.82,0.61,1.42
10.118,0.86,0.04,0.36,0.93
10.128,0.23,1.26,-0.12,1.29
10.138,-0.95,2.38,-0.59,2.63
10.148,-2.10,3.21,-0.80,3.92
10.159,-2.83,3.86,-0.66,4.83
10.169,-3.12,4.21,-0.54,5.27
10.178,-3.25,4.33,-0.81,5.47
10.189,-3.20,4.36,-0.90,5.48
10.199,-2.81,4.57,-0.53,5.39
10.209,-1.77,4.92,-0.05,5.23
10.219,-0.19,5.64,0.36,5.65
10.229,1.20,6.51,0.12,6.62
10.239,2.24,7.07,-0.83,7.46
10.249,2.84,6.76,-1.42,7.47
10.259,2.68,5.51,-1.25,6.25
10.269,1.83,4.01,-0.68,4.46
10.279,0.84,2.63,0.10,2.76
10.289,-0.18,1.50,0.75,1.68
10.299,-1.06,0.65,0.84,1.50
10.309,-1.48,0.16,0.72,1.65
10.320,-1.47,-0.10,0.63,1.60
10.330,-1.29,-0.17,0.47,1.38
10.340,-0.94,-0.37,0.23,1.04
10.350,-0.53,-0.79,-0.04,0.95
10.360,-0.21,-1.25,-0.26,1.29
10.370,0.06,-1.64,-0.54,1.73
10.380,0.19,-2.00,-0.80,2.16
10.390,0.19,-2.27,-0.82,2.42
10.400,0.13,-2.47,-0.69,2.57
10.410,0.01,-2.60,-0.56,2.65
10.420,-0.13,-2.60,-0.54,2.66
10.430,-0.29,-2.46,-0.58,2.54
10.440,-0.50,-2.25,-0.54,2.37
10.450,-0.84,-2.04,-0.43,2.24
10.460,-1.10,-1.81,-0.27,2.14
10.470,-1.29,-1.53,-0.13,2.01
10.480,-1.37,-1.30,-0.18,1.89
10.491,-1.40,-1.14,-0.33,1.83
10.501,-1.42,-1.01,-0.36,1.78
10.511,-1.38,-0.90,-0.22,1.66
10.521,-1.18,-0.79,-0.07,1.42
10.531,-0.88,-0.65,-0.01,1.10
10.541,-0.66,-0.51,-0.07,0.84
10.551,-0.50,-0.43,0.05,0.66
10.561,-0.27,-0.43,0.35,0.61
10.571,0.10,-0.41,0.66,0.79
10.581,0.58,-0.49,0.84,1.13
10.591,1.02,-0.70,1.07,1.63
10.601,1.28,-1.09,1.19,2.06
10.611,1.40,-1.53,1.32,2.46
10.621,1.44,-1.93,1.59,2.88
10.631,1.42,-2.19,1.75,3.14
10.641,1.33,-2.15,1.61,3.00
10.651,1.14,-1.95,1.21,2.56
10.661,0.89,-1.65,0.84,2.05
10.671,0.64,-1.38,0.48,1.60
10.681,0.37,-1.33,0.20,1.40
10.692,0.08,-1.50,-0.01,1.50
10.702,-0.33,-1.81,0.01,1.84
10.712,-0.76,-1.90,0.08,2.05
10.722,-0.96,-1.61,0.18,1.88
10.732,-0.95,-1.14,0.14,1.49
10.742,-1.04,-0.75,0.06,1.28
10.752,-1.25,-0.39,-0.00,1.31
10.762,-1.15,-0.37,-0.09,1.21
10.772,-0.68,-0.89,-0.05,1.12
10.782,-0.22,-1.71,0.11,1.73
10.792,0.11,-2.54,0.34,2.57
10.802,0.49,-3.12,0.64,3.22
10.812,0.85,-3.24,1.05,3.51
10.822,1.23,-2.89,1.34,3.41
10.832,1.50,-2.26,1.45,3.08
10.842,1.50,-1.63,1.54,2.70
10.852,1.35,-1.44,1.81,2.68
10.862,1.28,-1.84,2.16,3.11
10.873,1.30,-2.45,2.37,3.64
10.883,1.55,-2.91,2.23,3.98
10.893,2.00,-2.81,2.18,4.08
10.903,1.91,-1.19,0.75,2.37
10.913,1.51,1.60,0.14,2.21
10.923,0.94,5.11,0.30,5.21
10.933,-0.75,7.28,1.07,7.40
10.943,-2.97,7.73,0.51,8.29
10.953,-3.72,7.79,-0.43,8.65
10.963,-2.60,6.52,-0.14,7.02
10.973,-0.65,5.45,-0.17,5.49
10.983,0.84,5.55,-0.00,5.62
10.994,2.51,7.33,-0.54,7.76
11.003,2.77,9.01,-1.29,9.51
11.013,0.50,7.26,-1.62,7.46
11.024,-1.56,3.90,-1.54,4.47
11.034,-2.34,2.03,-1.29,3.36
11.044,-2.79,1.25,-0.79,3.15
11.054,-3.00,0.75,-0.03,3.09
11.064,-2.85,0.31,0.79,2.98
11.074,-2.27,0.25,1.22,2.59
11.084,-1.30,0.43,1.16,1.80
11.094,-0.19,0.60,0.75,0.97
11.104,0.60,0.58,-0.07,0.84
11.114,0.91,0.13,-0.80,1.22
11.124,0.88,-0.52,-1.22,1.59
11.134,0.74,-1.24,-1.37,1.99
11.144,0.64,-1.84,-1.41,2.41
11.154,0.57,-2.18,-1.43,2.67
11.164,0.37,-2.28,-1.38,2.69
11.174,0.25,-2.24,-1.29,2.60
11.184,0.11,-2.07,-1.25,2.42
11.195,-0.12,-1.74,-1.22,2.13
11.205,-0.19,-1.27,-1.21,1.76
11.215,-0.12,-0.85,-1.13,1.42
11.225,0.04,-0.57,-0.91,1.07
11.235,0.18,-0.37,-0.67,0.79
11.245,0.40,-0.24,-0.40,0.62
11.255,0.61,-0.16,-0.17,0.65
11.265,0.81,-0.13,-0.05,0.82
11.275,1.06,-0.17,0.04,1.07
11.285,1.30,-0.28,-0.03,1.33
11.295,1.41,-0.49,-0.08,1.49
11.305,1.36,-0.72,-0.10,1.54
11.315,1.17,-0.86,-0.13,1.45
11.325,0.99,-0.84,-0.06,1.30
11.335,0.89,-0.74,0.20,1.18
11.345,0.78,-0.59,0.63,1.17
11.355,0.67,-0.53,1.04,1.34
11.365,0.54,-0.78,1.34,1.64
11.376,0.58,-1.18,1.49,1.99
11.386,0.87,-1.59,1.42,2.30
11.396,1.19,-1.81,1.33,2.54
11.406,1.42,-1.70,1.17,2.51
11.416,1.58,-1.20,0.91,2.19
11.426,1.56,-0.43,0.70,1.77
11.436,1.35,0.19,0.64,1.50
11.446,0.93,0.37,0.63,1.18
11.456,0.40,0.12,0.63,0.76
11.466,-0.04,-0.32,0.68,0.75
11.476,-0.23,-0.63,0.92,1.14
11.486,-0.14,-0.85,1.23,1.50
11.496,0.31,-0.93,1.45,1.75
11.506,0.95,-0.55,1.48,1.84
11.516,1.46,0.24,1.26,1.95
11.526,1.72,0.97,1.00,2.22
11.536,1.73,1.33,0.87,2.35
11.546,1.47,1.31,0.87,2.15
11.557,1.12,1.04,0.97,1.81
11.567,0.93,0.79,1.25,1.74
11.577,0.80,0.59,1.50,1.80
11.587,0.76,0.60,1.62,1.89
11.597,0.76,0.79,1.74,2.06
11.607,1.11,1.03,1.87,2.41
11.617,1.53,1.30,2.13,2.93
11.627,1.55,1.49,2.13,3.03
11.637,1.10,1.59,1.57,2.49
11.647,0.53,1.75,0.56,1.91
11.657,0.15,2.00,-0.84,2.18
11.667,-0.46,1.99,-2.12,2.94
11.677,-1.49,1.60,-3.13,3.82
11.687,-2.60,0.87,-3.84,4.72
11.697,-3.41,-0.02,-3.93,5.21
11.707,-3.83,-0.91,-3.39,5.20
11.718,-3.71,-1.54,-2.59,4.78
11.728,-2.85,-1.89,-1.79,3.86
11.738,-1.83,-1.81,-1.23,2.85
11.748,-1.13,-0.97,-0.98,1.78
11.758,-0.41,0.34,-1.07,1.19
11.768,0.17,1.50,-1.33,2.02
11.778,0.62,2.37,-1.58,2.91
11.788,0.86,2.93,-1.73,3.51
11.798,0.73,3.23,-1.47,3.62
11.808,0.37,3.06,-1.03,3.25
11.818,-0.26,2.52,-0.71,2.63
11.828,-0.94,1.85,-0.48,2.13
11.838,-1.22,1.28,-0.28,1.79
11.848,-0.82,1.18,-0.07,1.44
11.858,-0.61,0.78,-0.12,1.00
11.868,-0.41,0.21,-0.24,0.51
11.878,-0.09,-0.27,-0.36,0.46
11.888,0.11,-0.75,-0.47,0.89
11.899,0.19,-1.10,-0.50,1.22
11.908,0.21,-1.26,-0.33,1.32
11.919,0.05,-1.42,-0.09,1.43
11.929,-0.19,-1.50,0.06,1.51
11.939,-0.35,-1.50,0.13,1.55
11.949,-0.44,-1.49,0.15,1.56
11.959,-0.54,-1.50,0.26,1.61
11.969,-0.65,-1.55,0.43,1.74
11.979,-0.68,-1.55,0.58,1.79
11.989,-0.55,-1.50,0.53,1.68
11.999,-0.33,-1.37,0.34,1.44
12.009,-0.14,-1.14,0.09,1.15
12.019,-0.06,-0.93,-0.04,0.93
12.029,-0.08,-0.83,-0.16,0.84
12.039,-0.19,-0.73,-0.36,0.84
12.049,-0.37,-0.68,-0.28,0.83
12.060,-0.42,-0.67,-0.08,0.80
12.069,-0.42,-0.60,0.09,0.74
12.080,-0.42,-0.51,0.22,0.69
12.089,-0.37,-0.44,0.33,0.66
12.100,-0.33,-0.48,0.49,0.76
12.110,-0.29,-0.53,0.57,0.83
12.120,-0.21,-0.47,0.63,0.81
12.130,-0.06,-0.41,0.87,0.96
12.140,0.11,-0.50,1.09,1.20
12.150,0.31,-0.61,1.13,1.32
12.160,0.44,-0.66,1.15,1.40
12.170,0.44,-0.62,1.11,1.34
12.180,0.43,-0.58,0.92,1.17
12.190,0.48,-0.64,0.72,1.07
12.200,0.47,-0.83,0.80,1.25
12.210,0.45,-1.04,0.79,1.39
12.220,0.60,-1.10,0.76,1.46
12.230,0.65,-1.02,0.73,1.42
12.240,0.57,-0.73,0.54,1.07
12.251,0.44,-0.33,0.49,0.73
12.261,0.42,0.18,0.35,0.58
12.271,0.41,0.60,0.21,0.76
12.281,0.26,0.63,0.33,0.75
12.291,0.29,0.33,0.64,0.78
12.301,0.56,0.14,1.01,1.16
12.311,1.08,0.09,1.43,1.80
12.321,1.56,0.04,1.81,2.39
12.331,1.94,-0.06,2.09,2.85
12.341,2.23,-0.13,2.23,3.16
12.351,2.35,-0.19,2.33,3.31
12.361,2.37,-0.06,2.37,3.35
12.371,2.33,0.54,2.15,3.21
12.381,1.99,1.85,1.31,3.02
12.391,1.28,3.25,0.69,3.56
12.401,0.06,4.13,0.56,4.17
12.411,-1.42,4.18,0.40,4.43
12.421,-2.41,3.80,0.10,4.50
12.432,-2.66,3.46,-0.19,4.36
12.442,-2.56,3.26,-0.46,4.17
12.452,-2.53,3.00,-0.36,3.94
12.462,-2.43,2.48,-0.32,3.48
12.472,-2.04,1.38,-0.29,2.48
12.482,-1.37,0.06,-0.15,1.38
12.492,-0.79,-1.08,-0.25,1.36
12.502,-0.37,-1.91,-0.52,2.02
12.512,-0.13,-2.53,-0.76,2.65
12.522,0.06,-3.04,-1.03,3.21
12.532,0.20,-3.39,-1.50,3.71
12.542,0.25,-3.34,-1.90,3.85
12.552,0.08,-2.80,-2.12,3.51
12.562,-0.33,-1.59,-2.14,2.69
12.572,-0.80,-0.02,-2.11,2.26
12.582,-1.29,1.37,-2.28,2.95
12.593,-1.84,2.15,-2.42,3.73
12.603,-2.17,2.19,-2.35,3.87
12.613,-1.97,1.61,-2.09,3.30
12.623,-1.50,0.81,-1.74,2.43
12.633,-1.03,0.22,-1.26,1.64
12.643,-0.67,-0.16,-0.68,0.97
12.653,-0.36,-0.47,-0.20,0.62
12.663,-0.06,-0.78,0.12,0.79
12.673,0.17,-0.92,0.16,0.94
12.683,0.35,-0.90,-0.18,0.99
12.693,0.41,-0.77,-0.57,1.05
12.703,0.33,-0.55,-0.80,1.03
12.713,0.20,-0.49,-0.86,1.01
12.723,0.06,-0.61,-0.84,1.04
12.733,-0.08,-0.64,-0.78,1.01
12.743,-0.11,-0.48,-0.81,0.95
12.753,-0.07,-0.29,-0.91,0.96
12.764,-0.20,-0.13,-0.90,0.93
12.774,-0.37,-0.05,-0.76,0.84
12.784,-0.47,0.04,-0.63,0.79
12.794,-0.51,0.04,-0.59,0.78
12.804,-0.43,-0.01,-0.48,0.64
12.814,-0.18,-0.08,-0.29,0.35
12.824,0.15,-0.23,-0.17,0.32
12.834,0.38,-0.44,-0.11,0.59
12.844,0.48,-0.57,-0.14,0.76
12.854,0.56,-0.63,-0.15,0.85
12.864,0.58,-0.67,-0.14,0.90
12.874,0.59,-0.56,-0.21,0.84
12.884,0.59,-0.35,-0.27,0.74
12.894,0.42,-0.19,-0.30,0.55
12.904,0.05,-0.16,-0.31,0.36
12.914,-0.35,-0.38,-0.32,0.61
12.924,-0.47,-0.73,-0.15,0.88
12.935,-0.17,-0.98,0.05,0.99
12.945,0.27,-1.02,0.07,1.06
12.955,0.55,-0.91,0.12,1.07
12.965,0.52,-0.86,0.15,1.02
12.975,0.30,-0.90,0.07,0.95
12.985,0.17,-0.89,-0.07,0.91
12.995,0.19,-0.83,-0.17,0.87
13.005,0.23,-0.67,-0.23,0.74
13.015,0.21,-0.48,-0.25,0.58
13.025,0.02,-0.41,-0.28,0.50
13.035,-0.30,-0.52,-0.28,0.66
13.045,-0.50,-0.80,-0.16,0.96
13.055,-0.46,-1.29,-0.10,1.37
13.065,-0.40,-1.92,-0.09,1.96
13.075,-0.16,-2.38,0.04,2.39
13.085,0.26,-2.40,0.33,2.44
13.095,0.71,-2.04,0.71,2.27
13.105,1.19,-1.34,0.59,1.89
13.115,1.44,-0.65,0.19,1.60
13.126,1.49,-0.35,-0.01,1.53
13.136,1.33,-0.59,-0.15,1.47
13.146,0.97,-1.38,-0.31,1.71
13.158,0.78,-2.07,0.07,2.21
13.166,0.91,-2.38,0.67,2.63
13.176,1.22,-2.54,0.93,2.96
13.186,1.50,-2.52,0.72,3.03
13.196,1.47,-2.13,0.56,2.65
13.206,1.35,-1.56,0.53,2.12
13.216,1.28,-1.18,0.43,1.80
13.226,1.18,-1.13,0.47,1.70
13.236,1.00,-1.39,0.64,1.83
13.246,1.10,-1.63,1.05,2.23
13.256,1.50,-1.49,1.45,2.57
13.266,2.06,-1.28,1.54,2.87
13.276,2.47,-1.09,1.32,3.01
13.287,2.61,-1.15,0.89,2.99
13.297,2.41,-1.29,0.57,2.79
13.307,2.11,-1.44,0.33,2.58
13.317,1.70,-1.61,-0.04,2.34
13.327,0.99,-1.64,-0.86,2.10
13.337,0.50,-1.57,-0.95,1.90
13.347,0.64,-1.14,-0.14,1.31
13.357,0.23,0.18,-1.02,1.06
13.367,-1.90,2.05,-2.13,3.51
13.377,-3.66,4.00,-2.30,5.89
13.387,-4.19,5.65,-1.87,7.28
13.397,-4.25,6.96,-2.18,8.44
13.407,-4.49,7.24,-3.19,9.09
13.417,-4.78,6.74,-3.43,8.94
13.428,-4.70,6.04,-3.02,8.22
13.437,-4.10,5.19,-2.51,7.07
13.448,-3.30,4.66,-2.18,6.11
13.457,-2.60,4.65,-1.82,5.64
13.468,-2.13,4.99,-1.27,5.57
13.478,-1.53,5.44,-0.76,5.70
13.488,-0.73,5.72,-0.49,5.79
13.498,0.25,5.53,-0.27,5.54
13.508,0.64,4.37,0.04,4.42
13.518,0.84,3.06,0.47,3.21
13.528,0.77,1.91,0.74,2.19
13.538,0.73,1.22,0.78,1.62
13.548,0.60,0.73,0.64,1.15
13.558,0.43,0.36,0.49,0.74
13.568,0.43,-0.03,0.33,0.54
13.578,0.41,-0.35,0.18,0.57
13.588,0.40,-0.76,0.14,0.87
13.598,0.30,-1.23,0.11,1.27
13.608,0.30,-1.63,0.00,1.66
13.619,0.38,-1.96,-0.16,2.00
13.629,0.47,-2.27,-0.37,2.34
13.638,0.40,-2.57,-0.37,2.63
13.649,0.25,-2.80,-0.29,2.83
13.659,0.02,-2.78,-0.22,2.79
13.669,-0.18,-2.61,-0.21,2.62
13.679,-0.43,-2.37,-0.14,2.42
13.689,-0.64,-2.16,-0.10,2.26
13.699,-0.85,-2.02,-0.19,2.20
13.709,-1.03,-1.89,-0.18,2.16
13.719,-1.06,-1.64,-0.11,1.96
13.729,-1.07,-1.39,-0.01,1.75
13.739,-1.06,-1.19,0.04,1.59
13.749,-1.02,-1.02,-0.11,1.45
13.759,-0.94,-0.82,-0.14,1.25
13.769,-0.89,-0.57,-0.14,1.07
13.779,-0.90,-0.37,-0.17,0.99
13.789,-0.92,-0.30,-0.11,0.97
13.799,-0.77,-0.33,-0.02,0.84
13.810,-0.57,-0.48,0.23,0.77
13.820,-0.26,-0.61,0.41,0.78
13.830,0.13,-0.75,0.42,0.87
13.840,0.50,-0.92,0.45,1.14
13.850,0.87,-1.05,0.65,1.51
13.860,1.16,-1.21,0.96,1.93
13.870,1.30,-1.41,1.01,2.17
13.880,1.37,-1.63,0.89,2.31
13.890,1.39,-1.84,0.57,2.38
13.900,1.26,-1.97,0.20,2.35
13.910,0.92,-2.03,0.04,2.22
13.920,0.38,-1.80,0.08,1.84
13.930,-0.01,-1.71,0.06,1.71
13.940,-0.21,-1.81,-0.06,1.83
13.950,-0.42,-1.73,-0.35,1.82
13.961,-0.55,-1.52,-0.63,1.74
13.971,-0.62,-1.18,-0.74,1.53
13.981,-0.68,-1.02,-0.77,1.45
13.991,-0.88,-1.04,-0.87,1.62
14.001,-1.16,-1.37,-0.85,1.99
14.011,-1.44,-1.87,-0.37,2.38
14.021,-1.64,-2.13,0.34,2.71
14.031,-1.41,-2.15,0.73,2.67
14.041,-0.98,-2.05,0.82,2.42
14.051,-0.52,-1.90,0.60,2.06
14.061,-0.21,-1.76,0.47,1.83
14.071,0.00,-1.76,0.59,1.86
14.081,0.34,-1.91,0.78,2.09
14.091,0.72,-2.10,0.91,2.40
14.101,0.99,-2.25,0.82,2.59
14.111,0.97,-2.37,0.76,2.67
14.121,0.74,-2.52,1.00,2.81
14.131,0.74,-2.46,1.40,2.93
14.142,1.09,-2.22,1.58,2.94
14.152,1.40,-2.08,1.41,2.87
14.162,1.39,-1.72,0.87,2.38
14.172,0.82,-0.70,-0.65,1.25
14.182,0.79,1.28,-1.57,2.18
14.192,0.35,3.72,-1.82,4.16
14.202,-1.74,5.38,-2.42,6.15
14.212,-3.96,6.96,-3.66,8.80
14.222,-5.67,7.83,-3.80,10.39
14.232,-6.16,6.27,-2.61,9.17
14.242,-4.04,3.91,-1.16,5.74
14.252,-1.61,2.87,-0.34,3.31
14.262,0.44,4.25,-0.44,4.30
14.272,2.69,6.63,-0.19,7.16
14.282,3.03,7.47,0.89,8.11
14.292,2.34,5.93,1.34,6.52
14.302,2.04,4.00,1.06,4.61
14.312,1.93,2.87,0.82,3.56
14.322,1.33,2.41,0.75,2.85
14.333,0.42,2.18,1.07,2.46
14.343,-0.20,1.96,1.50,2.48
14.353,-0.38,1.82,1.71,2.53
14.363,-0.22,1.80,1.56,2.39
14.373,0.17,1.98,1.05,2.24
14.383,0.43,2.05,0.32,2.12
14.393,0.33,1.65,-0.14,1.69
14.403,0.08,1.04,-0.31,1.09
14.413,-0.06,0.39,-0.42,0.57
14.423,-0.12,-0.28,-0.52,0.61
14.433,-0.22,-0.83,-0.61,1.05
14.443,-0.34,-1.35,-0.65,1.53
14.453,-0.31,-1.86,-0.69,2.01
14.463,-0.17,-2.24,-0.68,2.35
14.473,-0.02,-2.47,-0.71,2.57
14.483,0.13,-2.61,-0.71,2.71
14.494,0.26,-2.64,-0.71,2.74
14.503,0.45,-2.49,-0.68,2.62
14.514,0.68,-2.20,-0.56,2.37
14.524,0.80,-1.86,-0.56,2.10
14.534,0.82,-1.46,-0.67,1.80
14.544,0.83,-1.13,-0.89,1.66
14.554,0.79,-0.84,-1.06,1.56
14.564,0.64,-0.65,-1.12,1.44
14.574,0.51,-0.58,-0.96,1.23
14.584,0.40,-0.54,-0.76,1.01
14.594,0.25,-0.52,-0.63,0.86
14.604,0.05,-0.58,-0.54,0.79
14.614,-0.16,-0.76,-0.41,0.88
14.624,-0.28,-0.96,-0.25,1.03
14.634,-0.22,-0.98,-0.18,1.02
14.644,0.01,-0.84,-0.06,0.84
14.654,0.17,-0.77,0.11,0.80
14.664,0.25,-0.87,0.27,0.95
14.676,0.32,-0.99,0.37,1.10
14.684,0.35,-0.95,0.28,1.05
14.695,0.41,-0.87,-0.05,0.96
14.705,0.54,-1.09,-0.12,1.22
14.715,0.85,-1.66,0.25,1.88
14.725,1.33,-2.16,0.56,2.60
14.735,1.83,-2.22,0.25,2.88
14.745,2.31,-1.82,-0.09,2.94
14.755,2.47,-0.98,-0.09,2.66
14.765,2.25,-0.18,0.13,2.26
14.775,1.83,0.19,0.41,1.89
14.785,1.11,-0.03,0.41,1.18
14.795,0.21,-0.94,0.30,1.01
14.805,-0.10,-2.01,0.43,2.05
14.815,0.10,-2.65,0.83,2.78
14.825,0.40,-2.96,0.98,3.14
14.836,0.85,-2.77,0.99,3.06
14.846,1.30,-1.96,0.88,2.51
14.855,1.36,-0.99,0.44,1.74
14.866,0.95,-0.65,-0.21,1.17
14.876,0.52,-1.21,-0.68,1.48
14.886,0.50,-1.88,-0.74,2.09
14.896,0.74,-2.26,-0.55,2.44
14.906,1.20,-2.39,-0.16,2.67
14.916,1.79,-2.41,0.25,3.01
14.926,2.25,-2.40,0.55,3.33
14.936,2.09,-2.21,0.45,3.07
14.946,1.58,-2.13,0.30,2.67
14.956,0.90,-1.89,0.11,2.09
14.966,-0.11,-1.29,-0.56,1.41
14.976,-2.00,0.11,-1.71,2.63
14.986,-3.76,1.98,-2.46,4.91
14.996,-4.11,3.28,-2.47,5.81
15.006,-3.86,4.19,-2.72,6.31
15.016,-4.15,5.00,-3.22,7.25
15.026,-4.37,5.59,-3.24,7.80
15.037,-4.54,6.07,-2.06,7.86
15.047,-4.16,6.54,0.08,7.75
15.057,-2.76,7.05,2.46,7.96
15.067,0.06,8.09,3.19,8.69
15.077,1.99,8.62,1.51,8.97
15.087,2.66,7.84,-0.12,8.28
15.097,3.30,6.32,-0.79,7.17
15.107,3.48,4.57,-0.45,5.76
15.117,3.23,3.07,0.45,4.48
15.127,2.74,1.97,1.06,3.54
15.137,1.96,1.29,1.15,2.61
15.147,1.03,0.98,0.93,1.70
15.157,0.27,0.91,0.64,1.15
15.167,-0.29,0.87,0.24,0.95
15.177,-0.77,0.64,-0.27,1.04
15.187,-1.04,0.19,-0.52,1.18
15.198,-1.13,-0.45,-0.46,1.30
15.207,-1.19,-1.15,-0.20,1.67
15.218,-1.18,-1.90,0.16,2.24
15.228,-1.12,-2.62,0.34,2.87
15.238,-1.18,-3.14,0.24,3.37
15.248,-1.19,-3.40,0.05,3.60
15.258,-1.05,-3.42,-0.11,3.58
15.268,-0.94,-3.27,-0.37,3.42
15.278,-0.90,-2.99,-0.74,3.21
15.288,-0.99,-2.68,-0.92,3.00
15.298,-1.23,-2.48,-0.79,2.88
15.308,-1.48,-2.44,-0.47,2.89
15.318,-1.63,-2.50,-0.23,2.99
15.328,-1.63,-2.58,-0.24,3.06
15.338,-1.49,-2.65,-0.31,3.05
15.348,-1.28,-2.60,-0.39,2.92
15.358,-1.06,-2.45,-0.44,2.71
15.369,-0.89,-2.16,-0.36,2.37
15.379,-0.77,-1.67,-0.12,1.84
15.389,-0.70,-0.96,0.09,1.19
15.399,-0.56,-0.20,0.23,0.64
15.409,-0.44,0.39,0.36,0.69
15.419,-0.24,0.50,0.28,0.62
15.429,0.13,-0.04,-0.01,0.14
15.439,0.64,-0.96,-0.35,1.21
15.449,1.08,-1.88,-0.39,2.20
15.459,1.20,-2.63,0.03,2.89
15.469,0.93,-2.97,0.70,3.19
15.479,0.43,-2.79,1.33,3.12
15.489,-0.05,-2.14,1.68,2.72
15.499,-0.31,-1.30,1.58,2.07
15.510,-0.40,-0.50,1.12,1.29
15.519,-0.31,-0.03,0.63,0.70
15.529,0.01,-0.14,0.39,0.41
15.539,0.16,-0.68,0.23,0.73
15.550,-0.04,-1.28,0.21,1.30
15.560,-0.26,-1.71,0.70,1.86
15.570,-0.61,-1.72,1.30,2.24
15.580,-0.81,-1.22,1.32,1.98
15.590,-0.48,-0.56,0.70,1.02
15.600,0.07,-0.10,-0.01,0.13
15.610,0.57,0.02,-0.37,0.68
15.620,0.90,-0.38,-0.50,1.09
15.630,1.11,-1.09,-0.46,1.62
15.640,1.28,-1.83,-0.00,2.24
15.650,1.37,-2.41,0.68,2.85
15.660,1.28,-2.76,1.15,3.25
15.670,1.02,-2.88,1.39,3.36
15.680,0.71,-2.79,1.40,3.20
15.690,0.26,-2.15,0.60,2.25
15.700,-0.48,-1.01,-0.49,1.22
15.710,-0.49,0.88,-1.19,1.56
15.721,-0.50,2.76,-1.20,3.05
15.731,-1.44,3.86,-1.24,4.31
15.741,-2.84,4.99,-1.72,5.99
15.751,-4.12,6.19,-1.66,7.62
15.761,-4.52,6.02,-1.02,7.60
15.771,-3.11,4.48,0.07,5.46
15.781,-1.10,3.53,0.68,3.76
15.791,1.01,4.23,0.78,4.42
15.801,3.10,6.06,1.27,6.93
15.811,3.63,6.55,1.67,7.68
15.821,3.10,5.21,1.68,6.29
15.831,2.43,3.57,1.26,4.50
15.841,1.81,2.76,0.99,3.45
15.851,1.03,2.53,1.26,3.01
15.861,0.33,2.41,1.70,2.96
15.871,-0.07,2.29,1.68,2.84
15.881,0.03,2.31,1.25,2.63
15.891,0.53,2.39,0.73,2.55
15.902,1.09,2.33,0.24,2.58
15.912,1.41,2.13,-0.27,2.57
15.922,1.30,1.67,-0.56,2.19
15.932,0.85,0.95,-0.73,1.47
15.942,0.37,0.25,-0.85,0.96
15.952,0.01,-0.42,-0.89,0.98
15.962,-0.35,-1.00,-0.84,1.35
15.972,-0.70,-1.59,-0.82,1.92
15.982,-0.86,-2.18,-0.75,2.46
15.992,-0.81,-2.50,-0.69,2.71
16.002,-0.65,-2.60,-0.70,2.77
16.012,-0.40,-2.60,-0.68,2.71
16.022,-0.03,-2.54,-0.68,2.63
16.032,0.30,-2.31,-0.88,2.49
16.042,0.58,-1.95,-1.04,2.29
16.053,0.68,-1.57,-1.07,2.02
16.062,0.62,-1.25,-1.07,1.76
16.073,0.47,-0.93,-1.08,1.50
16.083,0.27,-0.70,-1.17,1.39
16.092,0.03,-0.73,-1.10,1.31
16.103,-0.10,-1.05,-0.78,1.31
16.113,-0.09,-1.41,-0.44,1.48
16.123,0.07,-1.58,-0.17,1.59
16.133,0.15,-1.66,-0.20,1.68
16.143,0.08,-1.78,-0.33,1.81
16.153,0.07,-1.87,-0.44,1.92
16.163,0.15,-1.75,-0.44,1.81
16.173,0.13,-1.65,-0.31,1.68
16.183,0.06,-1.67,-0.27,1.69
16.193,0.06,-1.76,-0.21,1.77
16.203,0.19,-1.74,-0.05,1.75
16.213,0.47,-1.57,0.20,1.65
16.223,0.97,-1.48,0.43,1.82
16.234,1.63,-1.62,0.46,2.35
16.244,2.24,-1.93,0.40,2.98
16.254,2.51,-2.17,0.42,3.34
16.264,2.37,-1.94,0.34,3.08
16.274,2.23,-1.16,0.19,2.52
16.284,2.12,-0.17,-0.15,2.14
16.294,1.73,0.55,-0.54,1.90
16.304,0.89,0.45,-0.61,1.17
16.314,0.10,-0.41,-0.49,0.65
16.324,-0.14,-1.37,-0.41,1.43
16.334,0.04,-2.16,-0.17,2.17
16.344,0.53,-2.79,0.35,2.86
16.354,1.19,-3.07,0.89,3.41
16.364,1.72,-3.09,1.32,3.77
16.374,2.23,-2.84,1.54,3.93
16.384,2.52,-2.44,1.19,3.70
16.394,2.37,-2.10,0.50,3.21
16.404,1.99,-1.81,-0.03,2.69
16.415,1.31,-1.54,-0.43,2.07
16.425,0.56,-1.42,-0.14,1.53
16.435,0.25,-0.98,0.22,1.04
16.445,-0.13,0.05,0.01,0.14
16.455,-0.97,1.54,-0.51,1.89
16.465,-2.04,3.35,-1.14,4.09
16.475,-2.48,4.77,-1.38,5.55
16.485,-2.28,5.37,-1.60,6.05
16.495,-2.35,5.61,-2.21,6.47
16.505,-2.36,5.65,-2.36,6.56
16.515,-2.25,5.51,-1.74,6.20
16.525,-2.51,5.31,-0.59,5.91
16.535,-2.62,5.03,0.49,5.69
16.545,-2.25,4.75,1.15,5.38
16.555,-1.63,4.88,1.38,5.33
16.565,-1.12,4.92,1.30,5.21
16.575,-0.55,4.64,1.05,4.79
16.586,0.03,4.11,0.89,4.20
16.595,0.63,3.57,0.77,3.71
16.606,0.97,2.83,0.65,3.06
16.616,0.94,2.02,0.56,2.30
16.626,0.74,1.52,0.53,1.77
16.636,0.40,1.38,0.32,1.48
16.646,-0.03,1.39,0.05,1.39
16.656,-0.36,1.28,-0.20,1.35
16.666,-0.58,0.95,-0.30,1.15
16.676,-0.75,0.43,-0.25,0.90
16.686,-0.84,-0.13,-0.11,0.86
16.696,-0.87,-0.63,-0.01,1.07
16.706,-0.82,-1.13,0.05,1.40
16.716,-0.68,-1.68,0.09,1.82
16.726,-0.55,-2.15,0.15,2.22
16.736,-0.44,-2.48,0.14,2.52
16.747,-0.34,-2.66,-0.08,2.69
16.756,-0.30,-2.74,-0.33,2.78
16.767,-0.35,-2.76,-0.41,2.81
16.777,-0.38,-2.76,-0.28,2.80
16.787,-0.37,-2.76,-0.11,2.79
16.797,-0.34,-2.74,-0.08,2.76
16.807,-0.39,-2.68,-0.09,2.71
16.817,-0.47,-2.59,-0.13,2.64
16.827,-0.54,-2.52,-0.01,2.58
16.837,-0.58,-2.50,0.23,2.58
16.847,-0.64,-2.48,0.38,2.59
16.857,-0.65,-2.47,0.44,2.60
16.867,-0.60,-2.45,0.39,2.55
16.877,-0.52,-2.38,0.24,2.45
16.887,-0.45,-2.28,0.04,2.32
16.897,-0.34,-2.17,-0.09,2.20
16.907,-0.25,-2.19,-0.25,2.22
16.917,-0.12,-2.24,-0.41,2.28
16.927,-0.06,-2.43,-0.45,2.47
16.937,-0.09,-2.72,-0.36,2.74
16.948,-0.19,-2.91,-0.33,2.93
16.957,-0.12,-2.64,-0.20,2.65
16.968,-0.10,-2.08,-0.03,2.08
16.978,-0.30,-1.73,-0.08,1.76
16.988,-0.46,-1.64,-0.19,1.71
16.998,-0.53,-1.96,-0.23,2.04
17.008,-0.36,-2.67,-0.02,2.70
17.018,0.03,-3.28,0.55,3.33
17.028,0.30,-3.44,1.09,3.62
17.038,0.50,-3.01,1.40,3.35
17.048,0.62,-2.37,1.48,2.86
17.058,0.76,-1.93,1.35,2.47
17.068,0.95,-1.82,1.21,2.38
17.078,1.11,-1.79,1.13,2.39
17.088,1.26,-1.75,1.08,2.41
17.098,1.22,-1.70,1.12,2.38
17.109,1.03,-1.24,1.31,2.08
17.119,0.66,0.34,-0.02,0.74
17.129,0.21,1.95,-0.26,1.98
17.139,-0.06,3.85,-0.66,3.91
17.149,-1.14,4.53,-0.51,4.70
17.159,-2.65,4.64,-1.98,5.69
17.169,-3.11,6.16,-3.05,7.55
17.179,-3.11,7.40,-2.96,8.56
17.189,-2.40,7.69,-2.56,8.46
17.199,-1.63,7.42,-1.13,7.69
17.209,-0.36,7.20,0.11,7.21
17.219,1.01,6.79,0.61,6.89
17.229,1.42,5.72,0.73,5.94
17.239,1.35,4.32,0.92,4.61
17.249,1.17,3.17,1.13,3.56
17.259,0.64,2.39,1.60,2.95
17.270,0.21,2.31,2.05,3.10
17.279,0.10,2.48,2.25,3.35
17.289,-0.08,2.34,1.78,2.94
17.299,-0.29,1.98,1.06,2.26
17.310,-0.21,1.71,0.63,1.83
17.320,0.05,1.68,0.28,1.71
17.330,0.33,1.59,0.03,1.63
17.340,0.46,1.09,-0.09,1.18
17.350,0.43,0.62,-0.25,0.80
17.360,0.15,0.33,-0.57,0.67
17.370,-0.08,-0.02,-0.77,0.77
17.380,-0.08,-0.27,-0.75,0.80
17.390,0.01,-0.58,-0.62,0.85
17.400,0.00,-0.98,-0.48,1.09
17.410,0.09,-1.36,-0.34,1.40
17.420,0.22,-1.62,-0.36,1.67
17.431,0.38,-1.65,-0.45,1.75
17.440,0.63,-1.50,-0.48,1.69
17.451,0.70,-1.38,-0.57,1.65
17.460,0.55,-1.39,-0.71,1.65
17.471,0.42,-1.46,-0.76,1.70
17.481,0.32,-1.46,-0.82,1.70
17.491,0.24,-1.35,-0.89,1.64
17.501,0.24,-1.15,-0.88,1.47
17.511,0.28,-0.91,-0.79,1.24
17.521,0.32,-0.64,-0.74,1.03
17.531,0.34,-0.40,-0.84,0.99
17.541,0.31,-0.27,-0.96,1.04
17.551,0.14,-0.36,-0.98,1.05
17.561,-0.05,-0.62,-0.83,1.04
17.571,-0.17,-0.99,-0.64,1.20
17.581,-0.30,-1.40,-0.59,1.55
17.591,-0.49,-1.63,-0.58,1.79
17.601,-0.56,-1.68,-0.57,1.86
17.611,-0.37,-1.54,-0.39,1.64
17.622,0.01,-1.18,-0.15,1.19
17.632,0.42,-0.71,-0.06,0.83
17.641,0.59,-0.32,-0.20,0.70
17.652,0.59,-0.21,-0.49,0.79
17.662,0.54,-0.42,-0.71,0.99
17.672,0.29,-1.04,-0.89,1.40
17.682,-0.03,-2.05,-1.00,2.28
17.692,-0.02,-3.08,-0.79,3.18
17.702,0.26,-3.85,-0.45,3.89
17.712,0.46,-4.28,0.09,4.30
17.722,0.75,-4.26,0.70,4.39
17.732,1.16,-3.90,1.09,4.21
17.742,1.69,-2.99,1.06,3.59
17.752,2.14,-1.70,0.64,2.81
17.762,2.10,-0.57,0.17,2.18
17.772,1.68,0.14,-0.14,1.70
17.782,1.08,0.33,-0.48,1.22
17.792,0.40,0.19,-0.88,0.99
17.802,0.06,-0.04,-1.12,1.12
17.812,0.06,-0.11,-0.81,0.82
17.823,0.23,-0.21,-0.08,0.32
17.833,0.42,-0.65,0.85,1.15
17.843,0.75,-1.39,1.57,2.23
17.853,1.15,-1.95,1.41,2.67
17.863,1.56,-2.18,1.07,2.88
17.873,2.09,-1.96,0.96,3.02
17.883,2.59,-1.70,1.11,3.29
17.893,2.83,-1.65,1.22,3.50
17.903,2.78,-1.78,1.08,3.47
17.913,2.37,-1.63,0.63,2.94
17.923,1.55,-1.04,0.13,1.87
17.933,0.28,-0.04,-0.54,0.61
17.943,-1.21,1.49,-1.44,2.40
17.953,-2.35,3.09,-1.91,4.33
17.963,-2.73,4.14,-1.60,5.21
17.973,-2.80,4.82,-1.28,5.72
17.983,-3.25,5.23,-1.29,6.29
17.994,-3.77,5.48,-1.50,6.82
18.004,-3.98,5.74,-1.13,7.07
18.014,-3.50,5.84,0.35,6.82
18.024,-2.18,5.70,1.96,6.41
18.034,-0.63,5.38,2.30,5.88
18.044,0.30,5.32,1.21,5.47
18.054,1.00,5.34,-0.44,5.45
18.064,1.41,5.05,-1.14,5.37
18.074,1.47,4.35,-0.79,4.66
18.084,1.23,3.30,-0.07,3.52
18.094,0.51,2.16,0.57,2.29
18.104,-0.23,1.33,0.82,1.58
18.114,-0.63,0.99,0.58,1.30
18.124,-0.82,0.92,0.18,1.24
18.134,-0.93,0.85,-0.17,1.27
18.144,-0.97,0.66,-0.34,1.23
18.155,-0.95,0.32,-0.25,1.03
18.164,-0.99,-0.15,0.02,1.00
18.175,-0.97,-0.74,0.23,1.24
18.185,-0.82,-1.41,0.34,1.67
18.195,-0.66,-2.05,0.37,2.19
18.205,-0.49,-2.57,0.43,2.65
18.215,-0.32,-2.99,0.47,3.04
18.225,-0.19,-3.26,0.43,3.29
18.235,-0.03,-3.29,0.26,3.31
18.245,0.14,-3.16,0.02,3.16
18.255,0.21,-2.92,-0.22,2.94
18.265,0.17,-2.65,-0.45,2.69
18.275,-0.07,-2.32,-0.52,2.38
18.285,-0.41,-1.99,-0.30,2.05
18.295,-0.73,-1.75,-0.02,1.90
18.305,-0.94,-1.53,0.20,1.80
18.315,-1.00,-1.32,0.28,1.68
18.325,-0.92,-1.11,0.29,1.48
18.335,-0.77,-0.95,0.28,1.26
18.346,-0.63,-0.80,0.34,1.07
18.356,-0.48,-0.71,0.40,0.94
18.366,-0.36,-0.68,0.41,0.87
18.376,-0.24,-0.72,0.54,0.93
18.386,-0.13,-0.88,0.64,1.10
18.396,-0.07,-1.13,0.60,1.28
18.406,0.22,-1.17,0.55,1.31
18.416,0.45,-1.13,0.40,1.28
18.426,0.50,-1.19,0.41,1.36
18.436,0.45,-1.32,0.35,1.43
18.446,0.38,-1.56,0.42,1.66
18.456,0.45,-1.91,0.47,2.02
18.466,0.60,-2.25,0.34,2.35
18.476,0.77,-2.51,0.07,2.63
18.486,0.76,-2.74,-0.20,2.85
18.496,0.52,-2.90,-0.40,2.98
18.507,0.13,-2.80,-0.32,2.82
18.517,-0.37,-2.61,-0.04,2.64
18.527,-0.70,-2.53,0.23,2.64
18.537,-0.82,-2.27,0.37,2.44
18.547,-0.67,-1.93,0.44,2.09
18.557,-0.28,-1.72,0.68,1.87
18.567,0.13,-1.75,1.02,2.02
18.577,0.53,-1.87,1.18,2.27
18.587,0.94,-1.93,1.16,2.44
18.597,1.09,-2.01,1.18,2.57
18.607,1.13,-2.07,1.21,2.65
18.617,1.30,-1.95,1.24,2.65
18.627,1.52,-1.66,1.21,2.56
18.637,1.66,-1.45,1.07,2.45
18.647,1.55,-1.24,0.71,2.11
18.657,0.91,-0.62,-0.26,1.13
18.667,-0.28,0.30,-1.03,1.10
18.678,-0.47,1.88,-1.15,2.25
18.688,-0.50,3.55,-1.68,3.96
18.698,-2.09,3.41,-1.18,4.17
18.708,-3.03,3.22,-1.69,4.73
18.718,-2.47,4.38,-2.43,5.58
18.728,-1.80,5.03,-2.24,5.79
18.738,-0.96,4.91,-1.31,5.17
18.748,-0.20,4.78,-0.64,4.83
18.758,1.30,5.95,-0.79,6.14
18.768,2.51,7.65,-0.58,8.08
18.778,1.64,7.42,0.00,7.60
18.788,0.08,5.38,0.91,5.46
18.798,-0.47,3.56,1.32,3.83
18.808,-0.80,2.75,1.47,3.22
18.818,-1.01,2.91,1.62,3.48
18.828,-0.97,3.38,1.67,3.89
18.838,-0.70,3.71,1.46,4.05
18.848,-0.45,3.59,1.01,3.76
18.858,-0.14,3.17,0.66,3.24
18.869,0.22,2.66,0.39,2.69
18.879,0.49,2.09,0.09,2.15
18.889,0.58,1.43,-0.05,1.54
18.899,0.46,0.82,-0.05,0.94
18.909,0.31,0.08,-0.17,0.36
18.919,0.26,-0.53,-0.36,0.69
18.929,0.30,-1.01,-0.55,1.19
18.939,0.21,-1.47,-0.73,1.66
18.949,0.09,-1.84,-0.86,2.03
18.959,0.09,-2.17,-0.94,2.36
18.969,0.13,-2.46,-0.89,2.62
18.979,0.26,-2.59,-0.74,2.71
18.989,0.29,-2.58,-0.71,2.69
18.999,0.29,-2.34,-0.83,2.50
19.009,0.25,-1.92,-0.93,2.15
19.019,0.19,-1.56,-0.89,1.80
19.029,0.14,-1.28,-0.78,1.50
19.040,0.10,-1.11,-0.73,1.33
19.050,0.08,-1.00,-0.75,1.26
19.060,0.09,-0.92,-0.80,1.22
19.070,0.02,-0.90,-0.74,1.17
19.080,-0.15,-1.00,-0.65,1.21
19.090,-0.27,-1.12,-0.61,1.31
19.100,-0.30,-1.19,-0.56,1.35
19.110,-0.31,-1.26,-0.45,1.37
19.120,-0.29,-1.30,-0.22,1.35
19.130,-0.27,-1.40,-0.00,1.43
19.140,-0.28,-1.57,0.05,1.59
19.150,-0.30,-1.73,-0.01,1.75
19.160,-0.19,-1.82,0.07,1.83
19.170,0.03,-1.81,0.17,1.82
19.181,0.34,-1.72,0.07,1.76
19.191,0.65,-1.65,0.03,1.77
19.201,0.90,-1.57,0.05,1.81
19.211,1.11,-1.42,0.13,1.81
19.221,1.28,-1.13,0.24,1.73
19.231,1.42,-0.67,0.06,1.57
19.241,1.43,-0.36,-0.10,1.48
19.251,1.30,-0.45,-0.03,1.37
19.261,1.21,-0.86,0.28,1.52
19.271,1.05,-1.17,0.46,1.64
19.281,0.85,-1.29,0.29,1.57
19.291,0.81,-1.25,0.08,1.49
19.301,0.86,-1.19,0.18,1.48
19.311,0.91,-1.17,0.38,1.53
19.321,0.85,-1.20,0.54,1.56
19.331,0.77,-1.08,0.73,1.52
19.341,0.89,-0.67,0.95,1.46
19.351,1.10,-0.23,1.08,1.56
19.361,1.47,-0.04,1.12,1.85
19.372,1.94,-0.05,1.23,2.30
19.382,2.23,-0.22,1.14,2.52
19.392,2.25,-0.73,0.75,2.48
19.402,2.07,-1.47,0.17,2.54
19.412,1.87,-2.14,-0.03,2.84
19.422,1.72,-2.55,0.24,3.08
19.432,1.55,-2.76,0.54,3.21
19.442,1.46,-2.93,0.62,3.33
19.452,1.55,-2.86,0.39,3.28
19.462,1.51,-2.15,0.35,2.65
19.472,1.22,-0.99,0.11,1.58
19.482,0.61,0.27,-0.49,0.83
19.492,-0.45,1.49,-1.12,1.92
19.502,-1.57,2.64,-1.70,3.51
19.512,-2.47,3.93,-1.81,4.98
19.522,-3.41,5.44,-1.67,6.63
19.532,-4.54,6.79,-1.83,8.37
19.543,-5.07,7.34,-2.20,9.19
19.552,-5.09,7.13,-1.76,8.94
19.563,-4.43,6.56,-0.14,7.92
19.572,-2.82,6.01,1.36,6.78
19.583,-1.00,5.73,1.47,6.00
19.593,0.19,5.77,0.58,5.80
19.603,1.55,5.79,-0.26,6.00
19.613,2.79,5.47,-0.50,6.16
19.623,3.03,4.47,-0.25,5.40
19.633,2.60,3.12,0.11,4.06
19.643,1.95,1.85,0.40,2.72
19.653,1.22,0.77,0.75,1.63
19.663,0.43,-0.08,0.95,1.05
19.673,-0.20,-0.60,0.85,1.06
19.683,-0.62,-0.99,0.52,1.28
19.693,-0.93,-1.35,0.20,1.65
19.703,-1.16,-1.67,0.11,2.04
19.713,-1.27,-1.90,0.11,2.29
19.724,-1.26,-2.17,0.07,2.51
19.734,-1.16,-2.48,-0.01,2.74
19.744,-1.00,-2.78,-0.21,2.96
19.754,-0.84,-3.02,-0.34,3.15
19.764,-0.69,-3.22,-0.35,3.31
19.774,-0.59,-3.26,-0.45,3.35
19.784,-0.52,-3.15,-0.62,3.26
19.794,-0.50,-2.94,-0.74,3.08
19.804,-0.56,-2.70,-0.79,2.87
19.815,-0.72,-2.44,-0.79,2.66
19.824,-0.84,-2.21,-0.81,2.50
19.834,-0.92,-1.98,-0.75,2.31
19.844,-0.97,-1.76,-0.56,2.09
19.854,-0.94,-1.59,-0.26,1.86
19.864,-0.89,-1.40,0.01,1.65
19.874,-0.78,-1.14,0.22,1.40
19.884,-0.58,-0.81,0.41,1.08
19.894,-0.39,-0.52,0.49,0.81
19.904,-0.21,-0.35,0.43,0.59
19.915,0.05,-0.34,0.37,0.51
19.925,0.36,-0.53,0.39,0.75
19.935,0.54,-0.82,0.56,1.13
19.945,0.50,-1.02,0.88,1.44
19.955,0.25,-0.98,1.11,1.51
19.965,0.09,-0.77,1.24,1.46
19.975,-0.04,-0.44,1.35,1.43
19.985,-0.06,-0.14,1.35,1.36
19.995,0.11,-0.10,1.01,1.02
20.005,0.34,-0.61,0.50,0.86
20.015,0.55,-1.39,0.17,1.50
20.025,0.39,-2.00,0.20,2.05
20.035,-0.11,-2.34,0.48,2.39
20.045,-0.82,-2.17,0.78,2.45
20.056,-1.40,-1.53,1.12,2.36
20.065,-1.50,-0.69,1.14,2.01
20.076,-1.22,0.10,0.90,1.52
20.086,-0.72,0.25,0.64,1.00
20.096,-0.11,-0.36,0.44,0.58
20.106,0.11,-1.26,0.46,1.34
20.116,0.35,-2.23,0.50,2.31
20.126,0.50,-2.97,0.46,3.05
20.136,0.37,-3.36,0.39,3.40
20.146,0.32,-3.35,0.40,3.39
20.156,0.37,-2.97,0.55,3.05
20.166,0.55,-2.55,0.62,2.68
20.176,0.82,-2.29,0.58,2.50
20.186,0.88,-2.35,0.58,2.57
20.199,0.77,-2.62,1.05,2.93
20.206,0.65,-2.83,1.80,3.42
20.216,0.59,-2.19,1.68,2.82
20.226,0.49,-0.68,0.54,1.00
20.236,0.26,1.34,-0.22,1.38
20.247,-0.53,2.51,-0.26,2.58
20.257,-1.12,2.76,-0.68,3.05
20.267,-1.06,4.71,-2.47,5.42
20.277,-1.26,7.79,-3.25,8.53
20.287,-1.99,9.22,-3.09,9.93
20.297,-2.74,8.48,-1.99,9.13
20.307,-1.96,7.44,-0.70,7.73
20.317,0.37,7.32,-0.24,7.34
20.327,1.87,7.14,0.29,7.38
20.337,1.88,5.87,1.21,6.28
20.347,2.09,4.52,1.80,5.29
20.357,2.38,3.78,2.23,5.00
20.367,2.35,3.75,2.65,5.16
20.377,2.28,3.79,2.54,5.10
20.387,1.59,3.15,1.92,4.02
20.397,0.49,2.03,1.39,2.51
20.407,-0.08,1.02,0.85,1.33
20.417,-0.24,0.25,0.32,0.47
20.428,-0.43,-0.19,-0.16,0.50
20.438,-0.73,-0.58,-0.58,1.10
20.448,-0.84,-0.81,-0.97,1.52
20.458,-0.84,-0.83,-1.40,1.83
20.468,-0.84,-0.89,-1.72,2.11
20.478,-0.71,-1.11,-1.77,2.21
20.488,-0.61,-1.41,-1.62,2.23
20.498,-0.55,-1.68,-1.34,2.22
20.508,-0.38,-1.96,-1.07,2.26
20.518,-0.19,-2.14,-0.87,2.32
20.528,-0.03,-2.33,-0.76,2.45
20.538,0.10,-2.54,-0.70,2.64
20.548,0.37,-2.62,-0.64,2.73
20.558,0.69,-2.47,-0.58,2.63
20.568,0.91,-2.19,-0.47,2.42
20.578,1.08,-1.90,-0.36,2.21
20.588,1.18,-1.57,-0.27,1.98
20.599,1.20,-1.18,-0.21,1.69
20.609,1.13,-0.86,-0.02,1.42
20.619,1.09,-0.68,0.12,1.28
20.629,1.08,-0.70,0.26,1.31
20.640,1.11,-0.79,0.25,1.39
20.649,1.14,-0.84,0.15,1.42
20.659,1.00,-0.84,0.18,1.32
20.669,0.80,-0.83,0.29,1.19
20.679,0.75,-0.67,0.46,1.10
20.689,0.81,-0.35,0.73,1.15
20.699,0.84,-0.02,0.90,1.23
20.709,0.67,0.08,0.87,1.10
20.719,0.43,-0.38,0.91,1.08
20.729,0.40,-0.96,1.16,1.56
20.739,0.67,-1.06,1.25,1.77
20.749,1.01,-0.73,1.13,1.68
20.759,1.26,-0.18,0.79,1.50
20.769,1.14,0.39,0.49,1.30
20.780,0.80,0.81,0.55,1.26
20.790,0.37,0.82,0.88,1.25
20.800,0.10,0.47,1.31,1.39
20.810,0.15,0.09,1.66,1.67
20.820,0.40,-0.12,1.81,1.86
20.830,0.76,-0.14,1.77,1.93
20.840,1.06,0.10,1.63,1.95
20.850,1.22,0.58,1.41,1.95
20.860,1.23,1.20,1.23,2.11
20.870,1.18,1.71,1.12,2.36
20.880,1.27,1.97,1.19,2.63
20.890,1.43,2.07,1.25,2.81
20.900,1.52,2.05,1.28,2.86
20.910,1.68,1.95,1.04,2.77
20.920,1.75,1.80,0.67,2.60
20.931,1.43,1.74,0.26,2.27
20.940,0.90,1.70,-0.18,1.93
20.951,0.38,1.71,-0.67,1.87
20.961,-0.25,1.68,-1.15,2.05
20.971,-1.05,1.51,-1.55,2.41
20.981,-1.66,1.01,-1.97,2.77
20.991,-1.98,0.23,-2.54,3.23
21.001,-2.16,-0.73,-3.01,3.78
21.011,-2.33,-1.81,-3.06,4.25
21.021,-2.37,-2.68,-2.78,4.53
21.031,-1.92,-3.27,-2.17,4.37
21.041,-1.11,-3.40,-1.37,3.83
21.051,-0.68,-2.31,-0.56,2.47
21.061,-0.30,-0.60,-0.19,0.70
21.071,0.10,0.80,-0.26,0.85
21.081,0.40,1.71,-0.45,1.81
21.091,0.33,2.39,-0.58,2.48
21.102,0.21,2.75,-0.68,2.84
21.112,-0.02,2.69,-0.54,2.74
21.121,-0.34,2.49,-0.12,2.51
21.132,-0.60,2.26,0.23,2.35
21.142,-0.66,2.09,0.25,2.20
21.152,-0.31,1.96,-0.06,1.98
21.162,-0.15,1.55,-0.23,1.57
21.172,-0.20,0.91,-0.24,0.96
21.182,-0.25,0.27,-0.23,0.44
21.192,-0.03,-0.23,-0.25,0.34
21.202,0.11,-0.65,-0.20,0.69
21.212,0.11,-1.02,-0.10,1.03
21.222,0.05,-1.43,-0.00,1.43
21.232,-0.11,-1.79,0.13,1.79
21.242,-0.26,-2.07,0.34,2.11
21.252,-0.28,-2.16,0.40,2.22
21.262,-0.38,-2.14,0.44,2.21
21.272,-0.46,-2.01,0.38,2.09
21.282,-0.56,-1.83,0.27,1.94
21.293,-0.74,-1.66,0.17,1.83
21.302,-0.94,-1.48,0.10,1.76
21.313,-1.05,-1.28,0.07,1.66
21.323,-1.15,-1.06,0.09,1.57
21.333,-1.19,-0.87,0.16,1.48
21.343,-1.13,-0.80,0.24,1.40
21.353,-0.92,-0.83,0.37,1.30
21.363,-0.52,-0.98,0.54,1.24
21.373,-0.01,-1.20,0.76,1.42
21.383,0.48,-1.41,0.90,1.74
21.393,0.84,-1.61,0.80,1.98
21.403,1.14,-1.68,0.69,2.14
21.413,1.23,-1.51,0.85,2.13
21.423,0.88,-1.24,1.00,1.82
21.433,0.25,-1.01,1.11,1.52
21.443,-0.29,-0.69,1.02,1.26
21.453,-0.40,-0.19,1.07,1.16
21.463,-0.38,0.18,1.08,1.16
21.474,0.05,0.53,0.89,1.04
21.484,0.48,0.92,0.63,1.21
21.494,0.80,1.03,0.59,1.43
21.504,1.28,0.82,0.94,1.79
21.514,1.61,0.47,1.21,2.07
21.524,1.73,0.14,1.24,2.13
21.534,1.61,-0.00,1.18,2.00
21.544,1.53,0.04,1.44,2.10
21.554,1.68,0.06,1.77,2.44
21.564,1.99,0.23,1.90,2.76
21.574,2.34,1.08,1.64,3.05
21.584,2.48,2.57,1.23,3.78
21.594,2.29,3.96,1.14,4.71
21.604,1.42,4.52,1.03,4.84
21.614,-0.05,4.13,0.78,4.21
21.624,-1.62,3.27,0.57,3.69
21.635,-2.67,2.39,0.39,3.61
21.644,-2.72,1.71,0.43,3.24
21.655,-2.19,1.30,0.58,2.61
21.665,-1.87,0.86,0.73,2.19
21.675,-1.57,0.44,0.70,1.78
21.685,-1.02,-0.03,0.45,1.12
21.695,-0.50,-0.64,-0.11,0.82
21.705,-0.21,-1.24,-0.79,1.49
21.715,-0.13,-1.76,-1.42,2.26
21.725,-0.09,-2.07,-2.04,2.90
21.735,-0.03,-2.22,-2.30,3.20
21.745,-0.13,-2.33,-2.43,3.37
21.755,-0.36,-2.05,-2.36,3.15
21.765,-0.66,-1.19,-2.14,2.53
21.775,-1.00,-0.29,-2.08,2.32
21.785,-1.51,0.43,-2.03,2.57
21.795,-1.81,0.76,-1.90,2.73
21.805,-1.69,0.77,-1.71,2.52
21.816,-1.29,0.64,-1.40,2.01
21.826,-0.85,0.55,-1.09,1.49
21.836,-0.48,0.36,-0.83,1.02
21.846,-0.22,0.09,-0.54,0.59
21.856,-0.03,-0.21,-0.42,0.47
21.866,0.15,-0.56,-0.50,0.77
21.876,0.23,-0.80,-0.61,1.04
21.886,0.17,-0.99,-0.67,1.20
21.896,0.08,-1.21,-0.74,1.42
21.906,-0.05,-1.31,-0.81,1.54
21.916,-0.16,-1.23,-0.89,1.53
21.926,-0.15,-1.02,-0.94,1.39
21.936,-0.15,-0.54,-0.97,1.12
21.946,-0.12,-0.01,-1.02,1.03
21.956,-0.20,0.40,-1.05,1.14
21.966,-0.30,0.63,-1.01,1.23
21.976,-0.36,0.67,-0.86,1.15
21.987,-0.43,0.43,-0.44,0.75
21.997,-0.39,-0.03,0.06,0.40
22.007,-0.17,-0.46,0.48,0.68
22.017,0.16,-0.71,0.63,0.96
22.027,0.47,-0.87,0.69,1.21
22.037,0.74,-1.02,0.75,1.47
22.047,1.02,-0.99,0.87,1.67
22.057,1.24,-0.79,0.91,1.73
22.067,1.33,-0.60,0.82,1.68
22.077,1.40,-0.44,0.61,1.59
22.087,1.39,-0.48,0.48,1.55
22.097,1.37,-0.57,0.48,1.56
22.107,1.37,-0.53,0.46,1.54
22.117,1.39,-0.38,0.49,1.52
22.127,1.36,-0.15,0.43,1.44
22.137,1.29,0.06,0.26,1.32
22.147,1.16,0.12,0.28,1.20
22.157,0.98,0.10,0.36,1.05
22.168,0.83,0.09,0.46,0.95
22.177,0.76,0.10,0.68,1.02
22.188,0.74,0.02,0.99,1.24
22.198,0.75,-0.12,1.20,1.42
22.208,0.84,-0.28,1.19,1.48
22.218,0.91,-0.39,0.98,1.39
22.228,0.97,-0.42,0.78,1.31
22.238,0.96,-0.24,0.55,1.13
22.248,0.76,0.15,0.44,0.89
22.258,0.42,0.67,0.56,0.97
22.268,0.19,1.24,0.72,1.44
22.278,0.16,1.70,0.64,1.82
22.288,0.05,1.97,0.44,2.02
22.298,-0.14,2.20,0.30,2.22
22.308,-0.26,2.61,-0.14,2.63
22.319,-0.37,3.07,-0.86,3.21
22.329,-0.48,3.04,-1.49,3.42
22.339,-0.85,2.58,-1.76,3.24
22.349,-1.35,2.09,-1.89,3.13
22.359,-1.67,1.45,-1.91,2.92
22.369,-1.70,0.66,-1.89,2.62
22.379,-1.56,-0.12,-1.92,2.48
22.389,-1.41,-0.85,-2.02,2.61
22.399,-1.25,-1.60,-2.24,3.02
22.409,-1.05,-2.31,-2.47,3.54
22.419,-0.92,-2.93,-2.57,4.01
22.429,-1.01,-3.28,-2.34,4.16
22.439,-1.36,-2.88,-1.91,3.72
22.449,-1.51,-1.76,-1.47,2.75
22.459,-1.41,-0.56,-1.16,1.91
22.469,-1.37,0.51,-0.84,1.68
22.479,-1.39,1.25,-0.51,1.94
22.489,-1.35,1.58,-0.31,2.10
22.499,-1.33,1.84,-0.36,2.30
22.509,-1.12,1.90,-0.50,2.26
22.520,-1.03,1.81,-0.55,2.15
22.530,-0.59,2.03,-0.52,2.18
22.540,-0.36,2.00,-0.63,2.13
22.550,-0.34,1.66,-0.69,1.83
22.560,-0.24,1.31,-0.59,1.46
22.570,-0.19,0.90,-0.37,0.99
22.580,-0.23,0.41,-0.08,0.48
22.590,-0.33,-0.14,0.11,0.38
22.600,-0.44,-0.64,0.17,0.79
22.610,-0.51,-1.02,0.16,1.15
22.620,-0.44,-1.37,0.18,1.45
22.630,-0.25,-1.62,0.23,1.65
22.640,-0.04,-1.69,0.28,1.72
22.650,0.17,-1.62,0.28,1.65
22.661,0.28,-1.49,0.28,1.54
22.670,0.18,-1.40,0.33,1.45
22.681,0.00,-1.43,0.36,1.47
22.690,-0.11,-1.68,0.31,1.71
22.701,-0.19,-2.10,0.19,2.11
22.711,-0.28,-2.52,0.12,2.54
22.721,-0.50,-2.76,0.06,2.81
22.731,-0.79,-2.74,0.05,2.85
22.741,-1.02,-2.50,0.12,2.70
22.751,-1.14,-2.23,0.38,2.53
22.761,-1.16,-2.06,0.70,2.47
22.771,-1.05,-2.03,0.75,2.41
22.781,-0.65,-2.12,0.44,2.27
22.791,-0.06,-2.21,-0.05,2.21
22.801,0.44,-2.42,-0.49,2.51
22.811,0.70,-2.84,-0.79,3.03
22.821,0.73,-3.30,-0.72,3.46
22.831,0.63,-3.67,-0.25,3.73
22.841,0.38,-3.71,0.32,3.75
22.851,0.06,-3.27,0.71,3.34
22.862,-0.18,-2.43,0.65,2.52
22.872,-0.38,-1.62,0.15,1.67
22.884,-0.44,-1.08,-0.32,1.21
22.892,-0.38,-0.94,-0.36,1.07
22.902,-0.26,-1.14,-0.08,1.17
22.912,-0.10,-1.51,0.37,1.55
22.922,0.14,-1.84,0.89,2.05
22.932,0.39,-1.97,1.21,2.35
22.943,0.62,-1.91,1.07,2.27
22.952,0.88,-1.82,0.66,2.13
22.962,1.01,-1.84,0.02,2.10
22.972,0.88,-2.08,-0.47,2.31
22.982,0.63,-2.54,-0.39,2.65
22.992,0.35,-3.10,0.22,3.12
23.002,0.15,-3.60,1.08,3.76
23.012,0.01,-4.01,1.82,4.40
23.023,0.04,-3.58,1.75,3.99
23.032,-0.39,-2.16,0.31,2.22
23.043,0.11,0.00,-0.22,0.25
23.053,0.97,2.89,-0.86,3.17
23.063,-0.73,4.35,-2.07,4.87
23.073,-2.59,6.13,-4.22,7.88
23.083,-3.55,8.49,-4.45,10.22
23.093,-4.28,9.82,-3.35,11.22
23.103,-4.14,8.58,-1.58,9.66
23.113,-2.71,6.85,-1.07,7.44
23.123,-0.47,6.86,-1.22,6.99
23.133,1.17,7.25,0.57,7.37
23.143,1.10,6.28,2.22,6.75
23.153,0.90,4.28,2.55,5.06
23.163,1.33,2.89,2.09,3.81
23.173,1.87,2.46,1.95,3.65
23.183,2.26,2.48,2.02,3.92
23.193,2.38,2.66,1.74,3.98
23.204,2.22,2.83,1.23,3.80
23.213,1.75,2.93,0.73,3.49
23.224,1.33,3.05,0.38,3.35
23.234,1.01,3.02,0.09,3.18
23.244,0.52,2.64,-0.23,2.70
23.254,-0.24,1.86,-0.49,1.94
23.264,-0.71,1.06,-0.73,1.47
23.274,-0.84,0.44,-0.82,1.25
23.284,-0.93,-0.13,-0.77,1.22
23.294,-0.96,-0.75,-0.71,1.41
23.304,-1.01,-1.39,-0.70,1.85
23.314,-1.00,-1.98,-0.70,2.33
23.324,-0.87,-2.48,-0.68,2.71
23.334,-0.55,-2.84,-0.57,2.95
23.344,-0.17,-3.07,-0.47,3.11
23.354,0.28,-3.11,-0.52,3.16
23.364,0.66,-3.01,-0.66,3.15
23.376,0.88,-2.74,-0.78,2.98
23.384,1.06,-2.27,-0.81,2.63
23.395,1.17,-1.64,-0.80,2.16
23.405,1.17,-0.95,-0.74,1.68
23.415,1.16,-0.41,-0.65,1.39
23.425,1.05,-0.17,-0.54,1.19
23.435,0.83,-0.19,-0.43,0.95
23.445,0.63,-0.35,-0.36,0.80
23.455,0.47,-0.63,-0.25,0.83
23.465,0.37,-0.99,-0.14,1.07
23.475,0.26,-1.44,-0.11,1.47
23.485,0.07,-1.86,-0.01,1.86
23.495,0.00,-2.05,0.19,2.06
23.505,0.17,-1.81,0.36,1.85
23.515,0.47,-1.25,0.56,1.45
23.525,0.71,-0.80,0.89,1.39
23.535,0.79,-0.62,1.05,1.46
23.546,0.71,-0.80,1.00,1.46
23.556,0.63,-1.31,0.61,1.58
23.566,0.63,-2.18,0.01,2.27
23.575,0.64,-3.01,-0.32,3.09
23.586,0.73,-3.51,-0.22,3.59
23.596,0.84,-3.59,-0.15,3.69
23.606,0.99,-3.34,-0.15,3.49
23.616,1.14,-2.46,-0.11,2.72
23.626,1.10,-1.25,0.03,1.66
23.636,0.83,-0.50,0.28,1.01
23.646,0.38,-0.35,0.29,0.59
23.656,0.14,-0.77,0.14,0.80
23.666,0.24,-1.57,0.03,1.59
23.676,0.37,-2.41,0.16,2.44
23.686,0.66,-2.83,0.31,2.92
23.696,1.04,-2.88,0.27,3.07
23.706,1.41,-2.79,0.24,3.13
23.716,1.58,-2.53,0.29,3.00
23.727,1.33,-2.36,0.29,2.73
23.737,0.97,-2.26,0.10,2.46
23.747,0.61,-2.03,-0.30,2.14
23.757,0.17,-1.75,-0.52,1.84
23.767,-0.52,-0.98,-0.91,1.43
23.777,-1.52,0.16,-1.16,1.92
23.787,-2.83,1.47,-1.36,3.47
23.797,-3.54,2.39,-1.10,4.41
23.807,-2.88,3.12,-0.04,4.25
23.817,-1.50,4.41,-0.21,4.66
23.827,-1.14,6.28,-1.31,6.52
23.837,-1.18,7.86,-2.30,8.28
23.847,-1.35,8.52,-2.15,8.89
23.857,-1.47,8.32,-0.75,8.48
23.867,-0.79,7.56,0.88,7.65
23.877,0.02,6.98,1.51,7.14
23.887,0.15,6.40,0.96,6.48
23.897,-0.00,5.74,-0.01,5.74
23.908,0.05,5.09,-0.57,5.12
23.918,0.18,4.50,-0.26,4.51
23.928,0.22,3.73,0.56,3.78
23.938,0.17,2.97,1.05,3.15
23.948,0.15,2.44,1.09,2.67
23.958,0.03,1.97,0.90,2.17
23.968,-0.18,1.63,0.57,1.73
23.978,-0.20,1.23,0.22,1.27
23.988,-0.12,0.61,-0.04,0.63
23.998,-0.01,-0.12,-0.14,0.18
24.008,0.02,-0.89,-0.04,0.89
24.018,-0.14,-1.57,0.08,1.58
24.028,-0.36,-2.20,0.01,2.23
24.038,-0.56,-2.79,-0.12,2.85
24.048,-0.84,-3.30,-0.20,3.42
24.058,-0.99,-3.78,-0.21,3.91
24.068,-0.93,-4.14,-0.23,4.25
24.078,-0.82,-4.32,-0.34,4.41
24.089,-0.66,-4.34,-0.32,4.40
24.099,-0.50,-4.18,-0.28,4.22
24.109,-0.42,-3.89,-0.29,3.93
24.119,-0.38,-3.58,-0.33,3.61
24.129,-0.46,-3.35,-0.38,3.40
24.139,-0.60,-3.10,-0.29,3.17
24.149,-0.74,-2.63,-0.12,2.73
24.159,-0.70,-2.12,0.01,2.23
24.169,-0.44,-1.57,0.04,1.63
24.179,-0.16,-1.00,-0.05,1.01
24.189,0.14,-0.49,-0.01,0.51
24.199,0.47,-0.33,0.05,0.57
24.209,0.62,-0.65,0.15,0.91
24.219,0.50,-1.26,0.32,1.39
24.229,0.22,-1.83,0.50,1.91
24.239,-0.10,-2.08,0.69,2.19
24.250,-0.24,-1.85,0.83,2.05
24.260,-0.19,-1.39,0.92,1.67
24.270,0.03,-0.95,0.79,1.23
24.280,0.37,-0.86,0.37,1.01
24.290,0.50,-1.29,0.06,1.38
24.300,0.41,-1.79,0.19,1.85
24.310,0.26,-1.97,0.79,2.14
24.320,0.03,-1.79,1.43,2.29
24.330,-0.24,-1.09,2.00,2.30
24.340,-0.47,-0.29,2.14,2.21
24.350,-0.42,0.14,1.48,1.55
24.360,-0.01,0.21,0.30,0.37
24.370,0.30,-0.14,-0.42,0.53
24.380,0.14,-0.77,-0.50,0.93
24.391,-0.14,-1.52,-0.05,1.53
24.400,-0.29,-2.12,0.71,2.25
24.410,-0.38,-2.41,1.14,2.70
24.421,-0.38,-2.49,1.19,2.78
24.431,-0.17,-2.42,0.90,2.59
24.441,0.04,-2.37,0.75,2.49
24.451,0.33,-2.26,0.68,2.39
24.461,0.72,-2.05,0.44,2.21
24.471,0.88,-1.41,0.14,1.67
24.481,0.57,-0.27,-0.64,0.90
24.491,0.47,1.18,-0.35,1.31
24.501,-0.24,2.63,-0.10,2.64
24.511,-1.67,3.28,0.15,3.68
24.521,-2.63,4.02,-0.98,4.90
24.531,-2.51,5.17,-2.28,6.18
24.541,-2.02,5.41,-2.75,6.39
24.551,-1.39,4.57,-2.46,5.37
24.561,-0.58,3.32,-0.83,3.47
24.571,0.83,3.22,0.19,3.33
24.581,2.81,4.89,-0.24,5.64
24.592,3.51,6.57,-0.25,7.45
24.602,2.14,6.10,0.13,6.46
24.611,0.51,3.83,0.61,3.91
24.622,-0.11,2.08,0.78,2.23
24.632,-0.26,1.44,1.10,1.83
24.642,-0.22,1.68,1.52,2.28
24.652,-0.25,2.11,1.89,2.85
24.662,-0.17,2.27,2.25,3.20
24.672,0.27,2.21,2.12,3.08
24.682,0.94,2.22,1.47,2.82
24.692,1.32,2.37,0.54,2.77
24.702,1.17,2.26,-0.29,2.56
24.712,0.69,1.73,-0.82,2.03
24.722,0.19,1.09,-1.01,1.50
24.732,-0.12,0.55,-0.87,1.04
24.742,-0.31,-0.01,-0.73,0.80
24.752,-0.45,-0.66,-0.71,1.07
24.762,-0.46,-1.32,-0.72,1.57
24.772,-0.29,-1.81,-0.63,1.94
24.782,-0.02,-2.16,-0.51,2.22
24.793,0.36,-2.30,-0.53,2.38
24.803,0.80,-2.28,-0.70,2.51
24.813,1.01,-2.10,-0.93,2.51
24.823,1.06,-1.74,-1.16,2.34
24.833,0.99,-1.29,-1.19,2.01
24.843,0.80,-1.02,-1.02,1.65
24.853,0.59,-1.06,-0.75,1.43
24.863,0.50,-1.26,-0.55,1.46
24.873,0.49,-1.38,-0.63,1.59
24.883,0.50,-1.47,-0.81,1.75
24.893,0.46,-1.60,-0.75,1.83
24.903,0.41,-1.64,-0.54,1.78
24.913,0.42,-1.49,-0.30,1.58
24.923,0.41,-1.21,-0.15,1.29
24.934,0.31,-0.99,-0.04,1.03
24.944,0.18,-0.94,0.19,0.98
24.954,-0.02,-1.20,0.27,1.23
24.964,-0.23,-1.76,0.13,1.78
24.974,-0.34,-2.47,-0.01,2.49
24.984,-0.25,-3.18,0.01,3.19
24.994,0.08,-3.71,0.22,3.71
25.004,0.48,-3.64,0.28,3.68
25.014,1.03,-2.64,0.23,2.84
25.024,1.65,-1.24,0.33,2.08
25.034,1.93,-0.39,0.24,1.98
25.044,1.85,-0.03,-0.08,1.85
25.054,1.63,-0.01,-0.42,1.68
25.064,1.31,-0.58,-0.39,1.48
25.074,0.91,-1.66,-0.19,1.90
25.084,0.49,-2.76,0.40,2.83
25.095,0.22,-3.28,1.09,3.46
25.104,0.35,-3.23,1.28,3.50
25.114,0.93,-2.69,0.83,2.96
25.124,1.45,-1.72,0.26,2.26
25.135,1.59,-0.76,-0.31,1.79
25.144,1.56,-0.53,-0.71,1.79
25.155,1.52,-0.98,-0.80,1.98
25.165,1.42,-1.68,-0.52,2.26
25.175,1.36,-2.19,-0.05,2.58
25.185,1.43,-2.39,0.20,2.79
25.195,1.62,-2.40,0.38,2.92
25.205,1.54,-1.88,0.81,2.56
25.215,1.20,-0.81,1.26,1.92
25.225,0.67,0.79,1.09,1.50
25.235,-0.34,2.53,0.16,2.56
25.245,-1.47,4.25,-1.42,4.71
25.255,-2.50,5.90,-2.89,7.03
25.265,-3.59,7.14,-3.74,8.82
25.276,-4.54,7.40,-3.66,9.42
25.286,-4.93,6.77,-3.12,8.94
25.295,-4.99,5.87,-2.20,8.01
25.306,-4.57,5.04,-0.75,6.85
25.316,-3.29,4.45,0.66,5.57
25.326,-1.55,4.65,1.22,5.05
25.336,-0.28,5.27,0.95,5.36
25.346,0.66,5.58,0.60,5.66
25.356,1.36,5.24,0.58,5.45
25.366,1.73,4.52,0.96,4.93
25.376,1.83,3.46,1.35,4.14
25.386,1.74,2.31,1.53,3.27
25.396,1.35,1.39,1.49,2.44
25.406,0.95,0.88,1.25,1.80
25.416,0.68,0.72,0.85,1.30
25.426,0.39,0.78,0.33,0.93
25.436,0.02,0.79,-0.12,0.80
25.446,-0.31,0.60,-0.36,0.77
25.456,-0.58,0.20,-0.44,0.75
25.466,-0.83,-0.35,-0.41,0.99
25.477,-0.92,-0.94,-0.34,1.36
25.487,-0.93,-1.44,-0.29,1.74
25.497,-0.99,-1.84,-0.22,2.10
25.507,-0.92,-2.23,-0.23,2.42
25.517,-0.70,-2.62,-0.27,2.73
25.527,-0.54,-2.85,-0.33,2.92
25.537,-0.49,-2.95,-0.40,3.02
25.547,-0.45,-3.07,-0.43,3.13
25.557,-0.49,-3.10,-0.45,3.18
25.567,-0.60,-3.11,-0.46,3.20
25.577,-0.76,-3.08,-0.41,3.20
25.587,-0.90,-3.04,-0.30,3.18
25.597,-0.96,-3.02,-0.18,3.17
25.607,-0.86,-3.01,-0.10,3.13
25.617,-0.62,-3.00,-0.04,3.07
25.628,-0.37,-2.96,0.01,2.98
25.638,-0.18,-2.80,0.13,2.81
25.648,0.00,-2.60,0.20,2.60
25.658,0.13,-2.44,0.23,2.45
25.668,0.13,-2.26,0.29,2.28
25.678,0.06,-2.11,0.41,2.15
25.688,0.10,-2.06,0.62,2.15
25.698,0.13,-2.13,0.80,2.28
25.708,0.16,-2.25,0.60,2.33
25.718,0.23,-2.10,0.44,2.15
25.728,0.27,-1.75,0.35,1.80
25.738,0.20,-1.39,0.39,1.46
25.748,-0.01,-1.01,0.47,1.11
25.758,-0.17,-0.73,0.42,0.85
25.768,-0.18,-0.67,0.22,0.73
25.778,-0.24,-1.02,-0.10,1.05
25.788,-0.30,-1.56,-0.17,1.60
25.798,-0.43,-1.78,0.08,1.84
25.809,-0.75,-1.79,0.49,2.00
25.818,-0.73,-1.83,0.62,2.07
25.828,-0.42,-1.71,0.42,1.81
25.839,-0.14,-1.63,0.16,1.65
25.849,-0.00,-1.83,-0.00,1.83
25.859,0.09,-2.30,0.06,2.30
25.869,0.30,-2.89,0.30,2.92
25.879,0.48,-3.31,0.85,3.45
25.889,0.54,-3.37,1.43,3.70
25.899,0.66,-2.82,1.83,3.43
25.909,0.76,-1.28,0.57,1.59
25.919,0.54,0.47,-1.28,1.46
25.929,0.61,2.15,-1.86,2.90
25.939,-0.30,2.60,-1.37,2.95
25.949,-1.86,2.32,-1.78,3.47
25.959,-2.43,3.62,-2.49,5.02
25.969,-2.72,5.25,-1.86,6.20
25.979,-2.59,5.66,-1.25,6.35
25.989,-1.97,5.03,-0.41,5.42
26.000,-0.79,5.61,-0.43,5.68
26.010,1.09,8.01,-1.30,8.19
26.020,1.77,9.23,-0.67,9.43
26.030,1.11,7.48,0.81,7.60
26.040,1.30,4.73,1.35,5.08
26.050,2.34,3.05,1.62,4.17
26.060,2.75,2.20,1.67,3.90
26.070,2.68,2.31,1.56,3.87
26.080,2.28,3.17,1.88,4.34
26.090,1.81,3.81,1.92,4.63
26.100,1.29,3.96,1.48,4.42
26.110,0.58,3.77,0.87,3.91
26.120,-0.03,3.62,0.19,3.63
26.130,-0.59,3.26,-0.35,3.34
26.140,-0.92,2.73,-0.50,2.93
26.150,-0.84,2.11,-0.41,2.30
26.161,-0.59,1.25,-0.37,1.43
26.170,-0.19,0.53,-0.48,0.74
26.181,0.05,-0.07,-0.63,0.64
26.191,0.02,-0.53,-0.79,0.95
26.201,0.00,-0.97,-0.89,1.32
26.211,0.11,-1.34,-0.87,1.60
26.221,0.15,-1.62,-0.77,1.80
26.231,0.12,-1.89,-0.71,2.03
26.241,0.05,-2.10,-0.66,2.20
26.251,-0.08,-2.31,-0.59,2.39
26.261,-0.18,-2.53,-0.53,2.59
26.271,-0.17,-2.58,-0.47,2.63
26.281,-0.05,-2.47,-0.46,2.52
26.291,0.22,-2.32,-0.44,2.37
26.301,0.44,-2.18,-0.54,2.29
26.311,0.52,-2.01,-0.69,2.19
26.321,0.53,-1.80,-0.84,2.06
26.331,0.54,-1.53,-0.93,1.87
26.341,0.48,-1.26,-0.95,1.65
26.352,0.29,-1.19,-0.90,1.52
26.362,-0.00,-1.43,-0.85,1.67
26.372,-0.30,-1.96,-0.84,2.15
26.382,-0.50,-2.61,-0.70,2.75
26.392,-0.50,-3.13,-0.51,3.21
26.402,-0.26,-3.36,-0.21,3.37
26.412,0.22,-3.24,0.26,3.26
26.422,0.89,-2.54,0.56,2.75
26.432,1.58,-1.38,0.62,2.18
26.442,2.00,-0.38,0.27,2.05
26.452,2.01,0.20,-0.28,2.04
26.462,1.64,0.09,-0.71,1.79
26.472,1.02,-1.07,-0.69,1.63
26.482,0.63,-2.65,-0.22,2.73
26.492,0.34,-3.67,0.31,3.70
26.502,0.01,-4.16,0.72,4.22
26.512,0.21,-3.89,0.92,4.00
26.523,0.95,-2.72,0.81,3.00
26.533,1.51,-1.14,0.70,2.02
26.543,1.45,-0.03,0.41,1.51
26.553,0.82,-0.13,0.06,0.83
26.563,0.11,-1.30,-0.24,1.33
26.573,0.06,-2.56,0.04,2.56
26.583,0.33,-3.14,0.54,3.21
26.593,0.90,-3.23,0.81,3.45
26.603,1.71,-2.83,0.92,3.43
26.613,2.41,-1.90,0.72,3.16
26.623,2.62,-0.94,0.49,2.82
26.633,2.48,-0.57,0.38,2.58
26.643,2.05,-0.65,0.37,2.18
26.653,1.49,-0.85,0.26,1.73
26.664,1.07,-0.95,0.59,1.55
26.673,0.77,-0.41,0.76,1.16
26.686,0.31,0.74,0.37,0.88
26.694,-0.69,2.02,-0.48,2.19
26.704,-1.66,3.15,-1.43,3.84
26.714,-2.32,4.05,-1.75,4.98
26.724,-3.01,4.95,-2.04,6.15
26.734,-3.88,5.97,-2.69,7.61
26.744,-4.40,6.84,-3.51,8.85
26.754,-4.92,6.74,-3.39,9.01
26.764,-5.47,6.27,-1.68,8.49
26.774,-4.81,5.49,0.60,7.32
26.784,-3.13,5.16,1.77,6.29
26.794,-1.50,5.22,1.26,5.57
26.804,0.43,5.73,0.31,5.76
26.814,2.39,5.90,-0.11,6.37
26.825,3.11,5.06,0.02,5.94
26.834,2.97,4.01,0.45,5.01
26.844,2.41,3.06,0.96,4.01
26.854,1.63,2.27,1.37,3.11
26.865,0.85,1.67,1.42,2.35
26.875,0.20,1.24,1.20,1.74
26.885,-0.28,1.00,0.91,1.38
26.895,-0.57,0.84,0.64,1.19
26.905,-0.73,0.47,0.42,0.96
26.915,-0.85,-0.07,0.14,0.87
26.925,-0.95,-0.72,-0.18,1.20
26.935,-1.05,-1.48,-0.38,1.86
26.945,-1.11,-2.24,-0.50,2.55
26.955,-1.09,-2.97,-0.49,3.20
26.965,-0.89,-3.62,-0.43,3.75
26.975,-0.79,-4.01,-0.40,4.10
26.985,-0.69,-4.15,-0.41,4.22
26.995,-0.51,-4.12,-0.44,4.17
27.005,-0.39,-3.95,-0.39,3.99
27.015,-0.27,-3.69,-0.19,3.71
27.025,-0.23,-3.38,-0.14,3.39
27.036,-0.34,-3.06,-0.27,3.10
27.046,-0.57,-2.77,-0.34,2.85
27.056,-0.77,-2.49,-0.20,2.61
27.066,-0.82,-2.21,0.05,2.36
27.076,-0.79,-1.90,0.35,2.08
27.086,-0.67,-1.47,0.55,1.71
27.096,-0.40,-0.95,0.66,1.23
27.106,-0.04,-0.45,0.72,0.85
27.116,0.31,-0.09,0.71,0.78
27.126,0.57,-0.09,0.74,0.94
27.136,0.78,-0.38,0.48,0.99
27.146,1.02,-0.63,0.42,1.27
27.156,1.00,-0.80,0.64,1.43
27.166,0.80,-1.07,0.98,1.66
27.176,0.59,-1.31,1.27,1.92
27.186,0.45,-1.32,1.30,1.90
27.196,0.47,-1.33,0.94,1.69
27.207,0.56,-1.49,0.54,1.68
27.217,0.67,-1.77,0.24,1.91
27.227,0.53,-2.12,0.18,2.20
27.237,0.12,-2.36,0.47,2.41
27.247,-0.42,-2.24,1.06,2.52
27.257,-0.78,-1.62,1.53,2.37
27.267,-0.78,-0.83,1.43,1.83
27.277,-0.55,-0.41,0.53,0.86
27.287,-0.37,-0.52,-0.61,0.88
27.297,-0.54,-0.97,-1.07,1.54
27.307,-0.71,-1.60,-0.81,1.93
27.317,-0.83,-2.26,-0.22,2.41
27.327,-0.82,-3.15,0.42,3.28
27.337,-0.67,-3.96,1.28,4.22
27.347,-0.46,-4.55,1.91,4.96
27.357,-0.02,-4.65,2.12,5.11
27.367,0.46,-4.36,1.86,4.76
27.378,0.77,-3.60,1.52,3.98
27.388,0.59,-1.88,0.02,1.97
27.398,0.52,0.59,-1.19,1.43
27.408,0.86,3.64,-1.13,3.91
27.418,-0.44,5.10,-1.39,5.30
27.428,-3.04,5.02,-2.72,6.47
27.438,-4.59,5.15,-3.44,7.71
27.448,-4.42,4.97,-3.03,7.31
27.458,-2.53,4.15,-2.02,5.26
27.468,-0.86,2.90,-0.24,3.03
27.478,0.66,3.22,0.38,3.31
27.488,3.02,6.19,-0.55,6.91
27.498,4.50,9.34,-0.31,10.37
27.508,4.00,9.35,0.94,10.21
27.518,2.95,6.48,1.72,7.33
27.528,2.65,4.03,1.55,5.06
27.538,2.38,3.13,1.21,4.11
27.548,1.77,3.08,1.22,3.76
27.559,1.02,3.06,1.53,3.57
27.569,0.52,2.71,1.92,3.36
27.578,0.39,2.33,1.91,3.04
27.589,0.43,2.06,1.48,2.58
27.599,0.29,1.84,0.77,2.01
27.609,-0.08,1.74,0.03,1.74
27.619,-0.62,1.51,-0.54,1.72
27.629,-0.98,0.86,-0.81,1.54
27.639,-1.07,0.18,-0.74,1.31
27.649,-0.89,-0.48,-0.68,1.22
27.659,-0.66,-1.08,-0.70,1.45
27.669,-0.36,-1.73,-0.69,1.90
27.679,0.02,-2.38,-0.62,2.46
27.689,0.43,-2.75,-0.65,2.86
27.699,0.83,-2.80,-0.85,3.05
27.709,1.14,-2.67,-1.04,3.08
27.719,1.28,-2.51,-1.09,3.02
27.730,1.30,-2.39,-1.11,2.94
27.740,1.29,-2.26,-1.10,2.83
27.750,1.18,-2.02,-1.08,2.58
27.760,1.08,-1.76,-1.12,2.35
27.770,0.95,-1.56,-1.15,2.16
27.780,0.72,-1.53,-1.11,2.02
27.790,0.37,-1.54,-1.10,1.93
27.800,0.12,-1.43,-1.07,1.79
27.810,-0.04,-1.30,-0.98,1.63
27.820,-0.24,-1.25,-0.88,1.55
27.830,-0.45,-1.40,-0.60,1.58
27.840,-0.67,-1.82,-0.26,1.95
27.850,-0.71,-2.46,0.16,2.57
27.860,-0.42,-2.84,0.56,2.92
27.870,0.15,-2.63,0.65,2.72
27.880,0.83,-2.03,0.70,2.30
27.890,1.58,-1.37,0.80,2.24
27.900,2.40,-0.95,0.85,2.72
27.912,2.98,-0.96,0.61,3.19
27.921,2.95,-1.27,0.20,3.22
27.931,2.33,-1.79,-0.25,2.94
27.941,1.80,-2.40,-0.48,3.04
27.951,1.32,-2.90,-0.27,3.20
27.961,0.82,-3.27,0.10,3.37
27.971,0.33,-3.43,0.33,3.46
27.981,0.13,-3.23,0.46,3.26
27.991,0.35,-2.57,0.74,2.70
28.001,0.68,-1.54,0.85,1.89
28.011,1.05,-0.79,0.74,1.51
28.021,1.53,-0.49,0.59,1.71
28.031,1.92,-0.47,0.50,2.04
28.041,2.25,-0.73,0.47,2.41
28.051,2.29,-1.27,0.34,2.64
28.061,1.84,-1.97,0.21,2.71
28.072,1.28,-2.75,0.00,3.03
28.082,0.66,-3.40,0.06,3.47
28.092,0.31,-3.58,0.84,3.69
28.102,-0.07,-2.74,1.16,2.98
28.112,-0.40,-0.79,0.75,1.16
28.122,-0.84,1.99,0.18,2.16
28.132,-1.41,4.96,-0.73,5.21
28.142,-1.47,7.52,-1.80,7.87
28.152,-1.73,8.92,-3.07,9.59
28.162,-2.90,8.67,-3.46,9.77
28.172,-3.51,7.56,-2.96,8.85
28.182,-3.70,6.77,-2.10,8.00
28.192,-4.07,6.24,-0.99,7.52
28.202,-3.82,6.27,0.14,7.34
28.212,-2.55,6.86,0.30,7.33
28.222,-1.19,7.25,-0.40,7.36
28.232,0.07,7.02,-0.94,7.08
28.242,0.96,6.06,-0.88,6.20
28.253,1.39,4.45,-0.22,4.67
28.263,1.43,2.72,0.40,3.10
28.273,1.18,1.29,0.66,1.86
28.283,0.94,0.39,0.73,1.25
28.293,0.57,-0.05,0.64,0.86
28.303,0.07,-0.14,0.39,0.42
28.313,-0.28,-0.17,0.18,0.37
28.323,-0.44,-0.32,-0.15,0.56
28.333,-0.44,-0.59,-0.36,0.82
28.343,-0.56,-0.86,-0.27,1.07
28.353,-0.78,-1.19,-0.11,1.43
28.363,-0.91,-1.52,-0.02,1.77
28.373,-0.98,-1.81,0.03,2.06
28.383,-0.95,-2.06,0.16,2.27
28.395,-0.81,-2.22,0.19,2.37
28.403,-0.70,-2.21,0.08,2.32
28.413,-0.56,-2.19,-0.07,2.26
28.423,-0.39,-2.17,-0.24,2.22
28.434,-0.24,-2.20,-0.38,2.25
28.444,-0.20,-2.23,-0.44,2.29
28.454,-0.31,-2.26,-0.41,2.32
28.464,-0.52,-2.26,-0.37,2.35
28.474,-0.76,-2.18,-0.29,2.33
28.484,-0.95,-2.01,-0.26,2.24
28.494,-1.00,-1.81,-0.19,2.08
28.504,-0.91,-1.62,-0.26,1.88
28.514,-0.82,-1.42,-0.30,1.67
28.524,-0.78,-1.23,-0.15,1.46
28.534,-0.67,-1.09,0.06,1.28
28.544,-0.62,-0.97,0.20,1.17
28.554,-0.54,-0.94,0.28,1.13
28.564,-0.40,-0.97,0.35,1.10
28.574,-0.24,-1.03,0.49,1.17
28.584,-0.06,-1.10,0.73,1.32
28.595,0.11,-1.16,1.07,1.58
28.604,0.20,-1.18,1.34,1.80
28.615,0.44,-1.18,1.20,1.74
28.625,0.82,-1.20,0.85,1.68
28.635,0.93,-1.45,0.48,1.79
28.645,0.84,-1.92,0.34,2.13
28.655,0.65,-2.29,0.22,2.39
28.665,0.42,-2.39,0.34,2.45
28.675,0.16,-2.29,0.63,2.38
28.685,-0.18,-1.88,0.79,2.04
28.695,-0.51,-1.47,0.69,1.70
28.705,-0.78,-1.20,0.40,1.48
28.715,-0.87,-1.10,0.12,1.41
28.725,-0.55,-1.33,0.16,1.45
28.735,-0.23,-1.61,0.54,1.71
28.745,-0.24,-1.91,0.89,2.12
28.755,-0.13,-1.99,0.96,2.22
28.765,-0.10,-1.75,1.02,2.03
28.775,-0.17,-1.40,1.25,1.89
28.786,-0.06,-1.10,1.24,1.66
28.796,0.17,-1.14,1.02,1.54
28.806,0.38,-1.60,0.98,1.92
28.816,0.41,-2.31,1.13,2.61
28.826,0.37,-3.09,1.30,3.38
28.836,0.46,-3.52,1.27,3.77
28.846,0.59,-3.02,1.02,3.24
28.856,0.66,-1.33,-0.09,1.49
28.866,0.67,0.75,-0.47,1.10
28.876,0.27,2.59,-1.63,3.07
28.886,-0.93,2.87,-2.00,3.61
28.896,-2.31,2.91,-2.49,4.47
28.906,-3.07,4.09,-3.21,6.04
28.916,-3.67,5.29,-2.74,7.00
28.926,-3.75,5.79,-1.61,7.09
28.937,-3.10,5.44,-0.42,6.27
28.947,-1.42,4.21,0.75,4.51
28.957,1.28,3.61,1.36,4.06
28.967,3.64,4.23,1.21,5.71
28.977,5.07,5.47,1.55,7.62
28.987,5.31,6.24,1.81,8.39
28.997,4.53,6.34,1.42,7.91
29.007,2.83,5.68,0.91,6.41
29.017,0.89,4.62,0.62,4.75
29.028,-0.66,3.52,0.47,3.61
29.037,-1.54,2.62,0.51,3.08
29.047,-1.73,2.18,0.59,2.85
29.057,-1.39,2.20,0.54,2.65
29.067,-0.83,2.19,0.39,2.38
29.077,-0.38,1.97,0.20,2.02
29.087,-0.13,1.52,-0.07,1.53
29.097,0.06,1.04,-0.35,1.10
29.107,0.19,0.60,-0.56,0.84
29.117,0.19,0.15,-0.66,0.70
29.128,0.18,-0.30,-0.74,0.82
29.138,0.12,-0.87,-0.74,1.14
29.148,0.05,-1.40,-0.71,1.57
29.158,0.11,-1.85,-0.71,1.99
29.168,0.24,-2.20,-0.66,2.31
29.178,0.38,-2.42,-0.67,2.54
29.188,0.57,-2.43,-0.82,2.62
29.198,0.70,-2.41,-0.83,2.64
29.208,0.72,-2.39,-0.75,2.61
29.218,0.66,-2.31,-0.62,2.49
29.228,0.54,-2.20,-0.62,2.35
29.238,0.42,-1.97,-0.60,2.10
29.248,0.27,-1.73,-0.50,1.82
29.258,0.13,-1.56,-0.33,1.60
29.268,0.03,-1.50,-0.18,1.51
29.279,0.01,-1.46,-0.15,1.47
29.289,-0.06,-1.61,-0.09,1.61
29.299,-0.18,-2.01,-0.02,2.02
29.309,-0.27,-2.59,-0.05,2.61
29.319,-0.29,-3.05,-0.13,3.07
29.329,-0.18,-3.10,-0.23,3.12
29.339,0.19,-2.83,-0.14,2.84
29.349,0.71,-2.08,0.13,2.20
29.359,1.17,-0.98,0.36,1.57
29.369,1.38,-0.09,0.45,1.45
29.379,1.29,0.21,0.28,1.33
29.389,0.99,-0.38,-0.07,1.06
29.399,0.54,-1.97,-0.25,2.06
29.409,0.51,-3.51,0.14,3.55
29.419,0.76,-4.23,0.72,4.35
29.429,1.07,-4.27,1.19,4.56
29.439,1.82,-3.48,1.45,4.19
29.449,2.72,-1.64,1.41,3.48
29.460,2.95,0.04,1.03,3.12
29.470,2.45,0.42,0.42,2.52
29.480,1.50,-0.51,-0.20,1.59
29.490,0.88,-2.19,-0.13,2.36
29.500,0.75,-3.00,0.47,3.13
29.510,1.14,-2.83,0.89,3.18
29.520,1.86,-2.21,1.13,3.10
29.530,2.47,-1.26,1.25,3.04
29.540,2.45,-0.54,1.27,2.81
29.550,1.88,-0.71,1.09,2.29
29.560,1.32,-1.47,0.91,2.18
29.570,1.30,-2.13,0.97,2.67
29.580,1.34,-2.38,1.00,2.91
29.590,1.07,-2.45,0.89,2.82
29.600,0.94,-2.20,0.29,2.42
29.610,1.50,-1.79,0.28,2.36
29.620,1.77,-0.78,0.33,1.96
29.631,0.48,1.02,-1.24,1.68
29.641,-2.24,2.71,-3.10,4.69
29.650,-4.08,4.29,-3.52,6.89
29.661,-5.03,6.38,-2.69,8.55
29.671,-6.34,8.75,-2.39,11.06
29.681,-7.37,9.90,-2.92,12.68
29.691,-6.92,9.34,-3.21,12.06
29.701,-5.56,7.96,-2.72,10.08
29.711,-3.72,6.61,-1.86,7.81
29.721,-1.63,5.67,-1.26,6.03
29.731,0.37,4.94,-0.82,5.02
29.741,1.83,4.52,-0.15,4.88
29.751,2.71,4.22,0.35,5.03
29.761,3.03,4.00,0.44,5.03
29.771,2.68,3.77,0.32,4.64
29.781,1.86,3.27,0.46,3.79
29.791,0.98,2.65,0.81,2.94
29.801,0.27,2.20,1.01,2.44
29.812,-0.23,1.85,0.96,2.10
29.822,-0.73,1.41,0.68,1.73
29.832,-0.94,0.87,0.36,1.33
29.842,-0.86,0.21,0.01,0.89
29.852,-0.64,-0.54,-0.34,0.91
29.862,-0.44,-1.35,-0.61,1.55
29.872,-0.13,-2.13,-0.73,2.26
29.882,0.23,-2.73,-0.79,2.85
29.892,0.48,-3.12,-0.82,3.27
29.902,0.68,-3.43,-0.82,3.59
29.912,0.68,-3.49,-0.75,3.64
29.922,0.56,-3.31,-0.63,3.41
29.932,0.43,-3.01,-0.60,3.10
29.942,0.12,-2.68,-0.48,2.73
29.952,-0.42,-2.42,-0.35,2.48
29.962,-0.96,-2.24,-0.25,2.45
29.972,-1.32,-2.11,-0.05,2.49
29.982,-1.50,-1.99,0.28,2.51
29.993,-1.48,-1.83,0.54,2.42
30.003,-1.32,-1.51,0.77,2.15
30.013,-0.96,-1.02,0.82,1.62
30.023,-0.51,-0.43,0.79,1.04
30.033,-0.10,0.09,0.91,0.92
30.043,0.29,0.39,1.02,1.13
30.053,0.53,0.44,0.93,1.16
30.063,0.65,0.40,0.71,1.04
30.073,0.82,0.26,0.43,0.96
30.083,0.88,0.00,0.22,0.91
30.093,0.84,-0.36,0.17,0.93
30.103,0.80,-0.67,0.19,1.06
30.113,0.79,-0.65,0.12,1.03
30.123,0.36,-0.46,-0.17,0.61
30.133,-0.13,-0.13,-0.32,0.37
30.143,-0.57,0.24,-0.32,0.69
30.154,-0.77,0.60,-0.19,1.00
30.163,-0.72,1.04,-0.09,1.27
30.173,-0.85,1.17,-0.16,1.46
30.184,-0.96,0.80,-0.03,1.26
30.194,-0.74,0.29,0.30,0.84
30.204,-0.33,-0.08,0.52,0.62
30.214,0.09,-0.35,0.78,0.86
30.224,0.62,-0.60,0.93,1.27
30.234,1.40,-0.60,0.90,1.77
30.244,2.19,-0.49,0.98,2.45
30.254,2.79,-0.45,1.15,3.05
30.264,3.17,-0.65,1.23,3.46
30.274,3.40,-0.80,1.32,3.74
30.284,3.46,-0.68,1.30,3.76
30.294,3.29,-0.28,1.24,3.53
30.305,2.91,0.42,1.10,3.14
30.315,2.12,1.12,0.81,2.53
30.325,0.95,1.86,0.55,2.17
30.334,-0.18,2.63,0.13,2.64
30.345,-1.14,3.28,-0.18,3.48
30.355,-1.94,3.66,-0.22,4.15
30.365,-2.38,3.66,-0.02,4.36
30.375,-2.33,3.13,0.30,3.91
30.385,-1.92,2.17,0.40,2.92
30.395,-1.53,1.17,0.20,1.93
30.405,-1.28,0.53,-0.12,1.39
30.415,-1.17,0.03,-0.28,1.20
30.425,-1.18,-0.61,-0.21,1.35
30.435,-1.13,-1.49,0.11,1.87
30.445,-0.86,-2.34,0.49,2.54
30.455,-0.40,-2.97,0.52,3.04
30.465,0.15,-3.25,0.24,3.26
30.475,0.71,-2.99,-0.15,3.08
30.485,0.99,-2.22,-0.75,2.54
30.496,0.83,-1.10,-1.33,1.91
30.505,0.39,0.11,-1.64,1.69
30.516,-0.04,1.19,-1.71,2.08
30.526,-0.46,1.98,-1.67,2.63
30.536,-0.98,2.28,-1.57,2.94
30.546,-1.42,2.08,-1.39,2.88
30.556,-1.76,1.55,-1.21,2.64
30.566,-1.79,0.89,-1.10,2.28
30.576,-1.50,0.32,-0.89,1.77
30.586,-1.03,-0.06,-0.62,1.20
30.596,-0.73,-0.21,-0.51,0.91
30.606,-0.47,-0.19,-0.70,0.86
30.616,-0.24,-0.18,-0.79,0.85
30.626,-0.08,-0.11,-0.82,0.83
30.636,0.11,-0.11,-0.81,0.83
30.646,0.30,-0.22,-0.80,0.88
30.656,0.43,-0.31,-0.84,0.99
30.666,0.53,-0.41,-0.72,0.98
30.676,0.68,-0.47,-0.67,1.07
30.687,0.83,-0.47,-0.77,1.22
30.697,0.84,-0.38,-0.58,1.09
30.707,0.81,-0.26,-0.46,0.97
30.717,0.71,-0.11,-0.42,0.83
30.727,0.63,0.04,-0.49,0.80
30.737,0.56,0.14,-0.57,0.81
30.747,0.42,0.18,-0.53,0.69
30.757,0.35,0.07,-0.41,0.55
30.767,0.32,-0.06,-0.42,0.53
30.777,0.22,-0.14,-0.39,0.47
30.787,0.18,-0.17,-0.51,0.57
30.797,0.19,-0.06,-0.53,0.57
30.807,0.11,0.02,-0.45,0.46
30.817,0.02,0.06,-0.52,0.52
30.827,-0.01,0.03,-0.43,0.43
30.837,0.10,-0.00,-0.36,0.38
30.847,0.27,0.05,-0.55,0.61
30.858,0.27,0.20,-0.75,0.82
30.868,0.11,0.47,-0.82,0.95
30.878,-0.13,0.71,-0.94,1.19
30.888,-0.26,0.58,-0.97,1.16
30.898,-0.69,0.46,-0.91,1.23
30.908,-1.13,0.37,-0.80,1.43
30.918,-1.34,0.27,-0.56,1.48
30.928,-1.30,0.11,-0.28,1.34
30.938,-1.16,-0.17,-0.08,1.17
30.948,-0.96,-0.36,0.09,1.03
30.958,-0.71,-0.45,-0.02,0.84
30.968,-0.29,-0.41,-0.08,0.51
30.978,0.18,-0.29,-0.16,0.38
30.988,0.61,-0.23,-0.08,0.66
30.998,0.74,-0.25,-0.02,0.78
31.008,0.30,-0.22,-0.17,0.41
31.018,0.14,-0.09,-0.31,0.36
31.028,-0.05,0.02,-0.42,0.43
31.039,-0.38,0.13,-0.49,0.63
31.049,-0.72,0.29,-0.11,0.79
31.059,-1.01,0.35,0.11,1.08
31.069,-0.93,0.36,0.04,1.00
31.079,-0.87,0.31,-0.13,0.93
31.089,-0.82,0.19,-0.15,0.85
31.099,-0.42,0.39,0.53,0.78
31.109,-0.58,0.28,0.33,0.72
31.119,-0.51,0.02,-0.59,0.78
31.129,-0.35,-0.13,-0.78,0.87
31.139,-0.27,-0.20,-0.10,0.35
31.149,-0.27,-0.43,0.33,0.60
31.159,-0.23,-0.37,0.47,0.63
31.169,-0.21,-0.40,0.14,0.47
31.180,-0.26,-0.53,-0.07,0.59
31.190,-0.28,-0.52,-0.05,0.59
31.200,-0.28,-0.36,0.04,0.46
31.210,-0.37,-0.28,0.02,0.46
31.220,-0.52,-0.24,0.04,0.57
31.230,-0.72,-0.10,0.06,0.73
31.240,-0.95,0.01,0.01,0.95
31.250,-1.02,0.02,0.02,1.02
31.260,-1.07,-0.00,0.06,1.07
31.270,-1.02,-0.07,0.04,1.02
31.280,-1.00,-0.05,0.13,1.01
31.290,-0.96,-0.08,0.10,0.96
31.300,-0.84,-0.07,-0.01,0.84
31.310,-0.66,-0.05,-0.05,0.66
31.320,-0.50,-0.04,-0.08,0.50
31.330,-0.42,-0.07,-0.03,0.43
31.340,-0.36,-0.12,0.01,0.38
31.350,-0.28,-0.13,0.04,0.31
31.360,-0.20,-0.07,0.08,0.23
31.370,-0.18,-0.04,0.12,0.22
31.380,-0.21,-0.07,0.14,0.27
31.391,-0.26,-0.11,0.14,0.31
31.401,-0.30,-0.13,0.09,0.33
31.411,-0.35,-0.12,0.07,0.38
31.421,-0.40,-0.06,0.01,0.41
31.431,-0.44,-0.03,-0.06,0.45
31.441,-0.43,-0.04,-0.07,0.44
31.451,-0.41,-0.08,-0.09,0.43
31.461,-0.38,-0.15,-0.05,0.41
31.471,-0.33,-0.22,-0.02,0.40
31.481,-0.28,-0.26,-0.01,0.38
31.491,-0.22,-0.27,0.02,0.35
31.501,-0.17,-0.24,0.10,0.31
31.511,-0.10,-0.16,0.16,0.25
31.521,-0.06,-0.07,0.15,0.17
31.531,-0.03,-0.01,0.08,0.09
31.541,-0.11,-0.02,0.01,0.11
31.552,-0.14,-0.06,-0.01,0.16
31.561,-0.13,-0.09,0.02,0.16
31.572,-0.08,-0.04,0.05,0.10
31.582,-0.01,-0.03,0.07,0.08
31.592,0.03,-0.02,0.03,0.05
31.602,0.06,-0.02,-0.04,0.08
31.612,0.06,0.01,-0.07,0.09
31.622,0.02,0.01,-0.09,0.09
31.632,-0.03,-0.03,-0.11,0.12
31.642,-0.08,-0.08,-0.13,0.18
31.652,-0.14,-0.03,-0.14,0.20
31.662,-0.19,0.11,-0.11,0.25
31.672,-0.22,0.24,-0.04,0.33
31.682,-0.22,0.26,0.01,0.34
31.692,-0.21,0.25,0.02,0.33
31.702,-0.16,0.20,0.00,0.26
31.712,-0.11,0.12,0.00,0.16
31.723,-0.10,0.02,-0.00,0.10
31.733,-0.08,-0.01,-0.02,0.08
31.743,-0.09,-0.02,0.00,0.10
31.753,-0.09,0.00,0.03,0.10
31.763,-0.13,-0.05,0.05,0.14
31.773,-0.17,-0.18,0.14,0.28
31.783,-0.19,-0.28,0.19,0.38
31.793,-0.13,-0.30,0.20,0.38
31.803,-0.10,-0.24,0.19,0.32
31.813,-0.10,-0.18,0.18,0.28
31.823,-0.08,-0.16,0.13,0.22
31.833,-0.05,-0.15,0.10,0.18
31.843,-0.02,-0.15,0.07,0.16
31.853,0.03,-0.09,0.07,0.12
31.863,0.04,-0.06,0.10,0.13
31.873,0.03,-0.06,0.11,0.13
31.883,0.03,-0.03,0.13,0.13
31.893,-0.01,0.00,0.12,0.12
31.904,-0.05,0.03,0.10,0.11
31.914,-0.06,0.02,0.09,0.10
31.924,-0.05,-0.04,0.05,0.08
31.934,-0.01,-0.07,0.02,0.08
31.944,0.02,-0.10,-0.02,0.11
31.954,0.03,-0.10,-0.01,0.10
31.964,0.03,-0.06,0.01,0.07
31.974,0.02,-0.05,0.03,0.06
31.984,0.00,-0.07,0.15,0.17
31.994,0.12,-0.13,0.07,0.19
32.004,0.10,-0.08,0.08,0.15
32.014,0.13,-0.15,0.16,0.25
32.024,0.10,-0.14,0.11,0.21
32.034,0.07,-0.12,0.07,0.15
32.044,0.06,-0.07,0.07,0.12
32.054,0.02,-0.02,0.08,0.09
32.064,-0.05,-0.01,0.10,0.11
