time,ax,ay,az,atotal
0.000,0.12,-0.09,1.05,1.06
0.010,0.24,-0.22,1.25,1.29
0.020,0.25,-0.35,1.00,1.09
0.030,0.15,-0.31,0.47,0.58
0.040,0.06,-0.13,-0.06,0.15
0.050,0.01,0.02,-0.47,0.47
0.060,0.01,0.05,-0.62,0.62
0.070,0.04,0.03,-0.42,0.43
0.080,0.09,-0.02,-0.07,0.11
0.091,0.13,-0.07,0.19,0.24
0.101,0.10,-0.08,0.28,0.31
0.111,0.07,-0.07,0.21,0.23
0.121,0.03,-0.06,0.01,0.07
0.131,-0.00,-0.06,-0.10,0.11
0.141,-0.00,-0.04,-0.13,0.13
0.151,-0.02,-0.02,-0.13,0.13
0.161,-0.01,-0.01,-0.06,0.06
0.171,-0.00,0.03,0.02,0.03
0.181,0.01,0.07,0.03,0.07
0.191,0.06,0.12,-0.06,0.15
0.201,0.05,0.13,-0.16,0.22
0.211,0.05,0.10,-0.20,0.23
0.221,0.02,0.04,-0.18,0.18
0.231,-0.00,-0.03,-0.09,0.10
0.241,-0.03,-0.10,0.01,0.10
0.252,-0.02,-0.14,0.08,0.16
0.262,-0.01,-0.15,0.13,0.20
0.272,-0.00,-0.12,0.16,0.20
0.282,-0.01,-0.09,0.16,0.19
0.292,-0.00,-0.06,0.11,0.13
0.302,0.01,-0.03,0.07,0.08
0.312,0.00,-0.01,0.04,0.04
0.322,0.02,-0.01,0.04,0.04
0.332,0.01,-0.03,0.06,0.07
0.342,0.02,-0.04,0.07,0.09
0.352,0.03,-0.06,0.08,0.10
0.362,0.04,-0.06,0.10,0.12
0.372,0.05,-0.03,0.10,0.12
0.382,0.05,-0.03,0.07,0.09
0.392,0.02,-0.04,0.03,0.05
0.402,-0.00,-0.04,0.01,0.04
0.412,0.03,-0.05,-0.01,0.06
0.422,0.05,-0.05,-0.00,0.07
0.432,0.07,-0.03,-0.01,0.08
0.442,0.07,-0.03,-0.02,0.08
0.453,0.04,-0.02,-0.01,0.05
0.463,0.04,-0.04,-0.00,0.06
0.473,0.05,-0.04,0.00,0.06
0.483,0.02,-0.05,-0.05,0.07
0.493,0.01,-0.05,-0.06,0.07
0.503,0.00,-0.03,-0.05,0.06
0.513,0.00,-0.03,-0.04,0.05
0.523,0.01,-0.01,0.01,0.02
0.533,0.03,-0.02,0.02,0.04
0.543,0.04,-0.02,0.04,0.07
0.553,0.04,-0.02,0.08,0.09
0.563,0.04,-0.04,0.05,0.08
0.573,0.02,-0.05,0.03,0.06
0.583,0.02,-0.03,0.02,0.04
0.593,0.02,-0.03,0.05,0.06
0.603,0.00,-0.01,0.06,0.06
0.613,0.02,0.01,0.05,0.05
0.624,0.01,0.00,0.02,0.02
0.634,0.01,-0.00,-0.02,0.02
0.644,0.04,-0.01,-0.01,0.05
0.654,0.05,-0.05,0.01,0.07
0.664,0.03,-0.07,0.02,0.08
0.674,0.02,-0.08,0.03,0.09
0.684,0.01,-0.06,0.04,0.07
0.694,-0.01,-0.03,0.03,0.04
0.704,-0.01,0.01,-0.01,0.02
0.714,0.00,0.03,-0.04,0.05
0.724,-0.01,0.03,-0.01,0.03
0.734,-0.01,0.02,0.02,0.03
0.744,-0.02,-0.02,0.03,0.04
0.754,-0.00,-0.07,0.05,0.09
0.764,-0.00,-0.08,0.06,0.10
0.774,-0.01,-0.08,0.07,0.11
0.784,0.00,-0.07,0.05,0.09
0.794,0.03,-0.05,0.05,0.08
0.805,0.04,-0.03,0.04,0.07
0.815,0.03,-0.02,0.06,0.07
0.825,0.05,0.02,0.02,0.05
0.835,0.05,0.06,-0.04,0.09
0.845,0.06,0.07,-0.11,0.14
0.855,0.04,0.08,-0.12,0.15
0.865,0.04,0.04,-0.08,0.10
0.875,0.04,-0.01,0.01,0.04
0.885,0.03,-0.09,0.09,0.13
0.895,0.03,-0.14,0.13,0.19
0.905,0.03,-0.17,0.12,0.21
0.915,0.02,-0.14,0.09,0.16
0.925,0.01,-0.08,0.03,0.09
0.935,0.02,-0.03,0.02,0.04
0.945,0.03,-0.01,0.02,0.04
0.955,-0.00,-0.01,0.01,0.01
0.965,0.01,-0.02,0.01,0.02
0.975,0.00,-0.02,0.02,0.03
0.986,0.01,-0.04,0.04,0.06
0.996,0.01,-0.04,0.05,0.07
1.006,-0.00,-0.05,0.03,0.06
1.016,0.02,-0.01,0.03,0.04
1.026,0.02,0.00,0.01,0.03
1.036,0.01,0.00,-0.03,0.03
1.046,0.01,0.01,-0.02,0.02
1.056,0.02,0.01,0.00,0.03
1.066,0.03,0.00,0.01,0.03
1.076,0.02,0.00,0.02,0.03
1.086,0.02,0.01,0.01,0.02
1.096,0.00,0.01,0.02,0.03
1.106,-0.00,0.01,0.01,0.01
1.116,0.03,-0.00,0.03,0.04
1.126,0.05,-0.04,0.02,0.07
1.137,0.05,-0.06,0.02,0.08
1.146,0.02,-0.07,0.01,0.07
1.156,0.01,-0.08,0.02,0.09
1.167,0.00,-0.08,0.02,0.08
1.177,-0.00,-0.07,0.04,0.08
1.187,0.01,-0.06,0.07,0.09
1.197,0.03,-0.05,0.05,0.08
1.207,0.04,-0.06,0.05,0.09
1.217,0.04,-0.05,0.02,0.07
1.227,0.04,-0.04,0.01,0.06
1.237,0.03,-0.01,-0.01,0.03
1.247,0.00,-0.01,0.01,0.01
1.257,0.01,0.00,0.03,0.03
1.267,0.01,0.00,0.02,0.02
1.277,0.02,-0.00,0.03,0.04
1.287,0.03,0.02,0.01,0.04
1.297,0.03,0.02,0.02,0.04
1.307,0.01,-0.01,0.02,0.03
1.318,-0.00,-0.02,0.04,0.04
1.327,0.01,-0.04,0.05,0.06
1.337,0.03,-0.04,0.05,0.07
1.348,0.01,-0.05,0.04,0.07
1.358,0.02,-0.05,0.03,0.07
1.368,0.02,-0.04,0.00,0.05
1.378,0.03,-0.04,-0.01,0.05
1.388,0.04,-0.03,-0.02,0.05
1.398,0.03,-0.01,-0.01,0.03
1.408,-0.01,-0.02,0.02,0.03
1.418,-0.02,-0.02,0.02,0.03
1.428,-0.03,-0.03,0.04,0.06
1.438,-0.02,-0.05,0.02,0.05
1.448,-0.02,-0.04,-0.01,0.04
1.458,-0.00,-0.03,0.00,0.03
1.468,0.02,-0.01,-0.00,0.02
1.478,0.03,-0.00,0.02,0.03
1.488,0.02,0.01,0.03,0.04
1.498,0.04,0.04,0.05,0.08
1.509,0.06,0.09,0.00,0.11
1.519,0.04,0.11,-0.06,0.13
1.529,0.03,0.10,-0.08,0.13
1.539,0.00,0.08,-0.09,0.12
1.549,0.01,0.01,-0.04,0.04
1.559,0.00,-0.06,0.05,0.08
1.569,0.03,-0.13,0.09,0.16
1.579,0.03,-0.16,0.12,0.20
1.589,0.02,-0.15,0.10,0.18
1.599,0.02,-0.09,0.07,0.12
1.609,0.02,-0.03,0.04,0.05
1.619,0.02,-0.01,0.01,0.03
1.629,-0.00,-0.00,-0.00,0.01
1.639,-0.01,-0.01,0.02,0.02
1.649,-0.01,-0.00,0.02,0.02
1.659,-0.01,-0.01,0.02,0.02
1.669,0.02,-0.01,0.06,0.06
1.679,0.01,-0.00,0.05,0.05
1.690,-0.01,0.01,0.05,0.05
1.700,-0.00,0.00,0.05,0.05
1.710,0.00,0.00,0.03,0.03
1.720,0.02,-0.01,0.04,0.04
1.730,0.02,-0.00,0.03,0.04
1.740,0.05,-0.01,0.04,0.06
1.750,0.03,-0.00,0.03,0.05
1.760,0.03,0.01,0.02,0.04
1.770,0.04,0.01,0.00,0.04
1.780,0.02,0.00,-0.02,0.03
1.790,0.02,0.01,-0.01,0.03
1.800,0.01,0.01,-0.01,0.02
1.810,0.02,-0.01,0.00,0.02
1.820,0.02,-0.03,0.04,0.06
1.830,-0.00,-0.05,0.06,0.08
1.840,-0.00,-0.07,0.06,0.09
1.851,0.00,-0.07,0.07,0.10
1.860,-0.00,-0.08,0.08,0.11
1.871,0.01,-0.07,0.05,0.09
1.881,0.01,-0.05,0.05,0.07
1.891,-0.00,-0.02,0.03,0.04
1.901,-0.01,-0.01,0.02,0.03
1.911,0.01,-0.01,0.02,0.02
1.921,0.01,-0.01,0.01,0.02
1.931,0.01,-0.01,0.01,0.02
1.941,0.02,-0.01,0.04,0.05
1.951,-0.01,-0.02,0.04,0.04
1.961,-0.01,-0.00,0.03,0.03
1.971,0.01,0.02,0.04,0.05
1.981,0.02,0.01,0.02,0.03
1.992,0.02,-0.00,0.01,0.02
2.001,0.02,-0.00,0.01,0.02
2.011,0.03,0.00,0.02,0.03
2.021,0.03,-0.01,0.02,0.04
2.032,0.02,-0.01,0.03,0.04
2.041,0.02,-0.01,0.03,0.04
2.052,0.03,-0.01,0.02,0.04
2.062,0.02,-0.00,0.03,0.04
2.072,0.04,0.01,0.02,0.05
2.082,0.02,-0.01,-0.00,0.03
2.092,0.01,-0.01,0.01,0.02
2.102,-0.00,-0.02,0.03,0.04
2.112,-0.01,-0.02,0.03,0.04
2.122,-0.03,-0.01,0.03,0.04
2.132,-0.02,-0.02,0.02,0.04
2.142,-0.01,-0.01,0.04,0.04
2.152,-0.00,0.00,0.05,0.05
2.162,-0.00,-0.02,0.02,0.03
2.172,-0.00,-0.01,0.02,0.02
2.182,0.00,-0.00,0.02,0.02
2.192,-0.01,-0.00,-0.00,0.01
2.203,0.01,0.00,0.01,0.01
2.212,0.02,-0.02,0.03,0.04
2.223,0.01,-0.04,0.03,0.05
2.233,0.02,-0.03,0.05,0.06
2.243,0.03,-0.03,0.06,0.07
2.253,0.02,-0.03,0.07,0.08
2.263,0.02,-0.03,0.05,0.06
2.273,0.01,-0.03,0.02,0.04
2.283,0.01,-0.03,0.03,0.04
2.293,0.04,-0.00,0.03,0.05
2.303,0.03,0.01,0.02,0.04
2.313,0.04,0.01,0.03,0.05
2.323,0.03,0.01,0.01,0.03
2.333,0.01,0.00,0.04,0.04
2.343,-0.01,0.01,0.06,0.06
2.353,-0.03,0.01,0.06,0.07
2.363,-0.03,-0.01,0.02,0.04
2.373,-0.04,-0.03,-0.02,0.05
2.383,-0.04,-0.03,-0.04,0.06
2.394,-0.03,-0.01,-0.03,0.05
2.404,-0.01,0.01,-0.01,0.02
2.414,0.02,0.03,0.05,0.07
2.424,0.04,0.04,0.07,0.10
2.434,0.07,0.07,0.07,0.12
2.444,0.07,0.11,-0.03,0.14
2.454,0.05,0.11,-0.09,0.16
2.464,0.02,0.06,-0.11,0.13
2.474,-0.02,0.02,-0.07,0.07
2.484,-0.02,-0.04,0.02,0.05
2.494,-0.02,-0.10,0.12,0.15
2.504,-0.02,-0.16,0.12,0.20
2.514,-0.00,-0.15,0.11,0.18
2.524,-0.01,-0.09,0.07,0.12
2.534,0.00,-0.04,0.03,0.05
2.544,0.02,0.00,0.02,0.02
2.555,0.01,0.01,0.01,0.02
2.564,0.01,0.03,0.01,0.04
2.575,0.01,0.02,0.04,0.04
2.585,0.02,0.00,0.04,0.04
2.595,0.01,-0.01,0.04,0.04
2.605,0.03,-0.02,0.05,0.06
2.615,0.02,-0.00,0.05,0.06
2.625,0.02,0.01,0.03,0.04
2.635,0.01,0.01,-0.01,0.01
2.645,0.00,0.03,-0.03,0.04
2.655,0.00,0.04,0.00,0.04
2.665,0.01,0.03,0.03,0.04
2.675,0.01,0.03,0.04,0.05
2.685,0.01,0.03,0.03,0.04
2.695,0.02,0.03,0.02,0.04
2.705,0.03,0.03,0.00,0.05
2.715,0.02,0.03,-0.01,0.04
2.726,0.01,0.02,-0.02,0.03
2.736,0.01,0.01,-0.01,0.02
2.745,-0.00,-0.02,0.00,0.02
2.755,-0.00,-0.03,-0.00,0.03
2.766,-0.01,-0.05,0.03,0.06
2.776,-0.01,-0.06,0.05,0.08
2.786,0.02,-0.06,0.06,0.08
2.796,0.02,-0.04,0.05,0.07
2.806,0.02,-0.05,0.04,0.06
2.816,0.02,-0.02,0.02,0.04
2.826,0.02,-0.01,0.01,0.03
2.836,-0.00,-0.00,-0.01,0.01
2.846,-0.00,-0.01,0.01,0.01
2.856,0.01,0.00,0.02,0.03
2.866,0.00,0.03,0.01,0.03
2.876,-0.00,0.02,0.04,0.05
2.886,-0.01,0.03,0.05,0.06
2.896,0.00,0.04,0.03,0.05
2.906,0.03,0.03,0.05,0.07
2.916,0.04,0.02,0.02,0.05
2.926,0.02,-0.00,0.02,0.03
2.937,0.01,-0.01,0.03,0.03
2.947,-0.02,-0.01,0.03,0.04
2.957,-0.02,-0.02,0.05,0.05
2.967,-0.02,-0.02,0.07,0.07
2.977,-0.01,-0.03,0.05,0.06
2.987,0.01,-0.01,0.04,0.04
2.997,0.02,-0.02,0.01,0.03
3.007,0.01,-0.02,0.01,0.03
3.017,0.01,-0.04,0.00,0.04
3.027,0.01,-0.03,0.01,0.03
3.037,0.01,-0.03,0.03,0.05
3.047,0.01,-0.03,0.02,0.03
3.057,-0.00,-0.00,0.02,0.02
3.067,0.00,-0.00,0.03,0.03
3.077,-0.01,-0.01,0.05,0.05
3.087,0.01,0.01,0.05,0.05
3.098,0.02,-0.00,0.07,0.07
3.108,0.05,-0.00,0.06,0.08
3.118,0.05,-0.00,0.04,0.07
3.128,0.03,-0.02,0.03,0.05
3.138,0.03,-0.02,0.03,0.05
3.148,0.02,-0.00,0.01,0.03
3.158,0.03,0.01,0.00,0.03
3.168,-0.00,0.00,0.00,0.00
3.178,-0.01,0.02,0.02,0.03
3.188,-0.02,0.01,0.05,0.05
3.198,-0.03,0.01,0.05,0.06
3.208,-0.01,0.01,0.03,0.03
3.218,-0.02,-0.01,-0.00,0.02
3.228,-0.02,-0.04,-0.02,0.05
3.238,-0.01,-0.03,-0.04,0.05
3.248,0.02,-0.01,-0.01,0.03
3.258,0.02,0.02,0.04,0.05
3.268,0.02,0.03,0.06,0.07
3.279,0.03,0.07,0.06,0.10
3.289,0.06,0.11,0.00,0.12
3.299,0.05,0.14,-0.05,0.16
3.309,0.03,0.10,-0.09,0.14
3.319,0.01,0.05,-0.08,0.09
3.329,-0.02,-0.03,-0.01,0.04
3.339,-0.04,-0.08,0.08,0.12
3.349,-0.02,-0.12,0.12,0.17
3.359,0.00,-0.14,0.12,0.18
3.369,0.01,-0.12,0.07,0.14
3.379,0.01,-0.08,0.03,0.09
3.389,0.01,-0.03,0.01,0.03
3.399,-0.01,0.01,-0.00,0.01
3.409,-0.01,0.03,0.01,0.03
3.419,-0.02,0.03,0.00,0.04
3.429,-0.02,0.02,0.02,0.04
3.440,-0.00,0.02,0.04,0.04
3.449,0.02,0.01,0.05,0.06
3.460,0.01,-0.00,0.06,0.06
3.470,0.01,0.02,0.05,0.06
3.480,0.03,0.02,0.01,0.04
3.490,0.03,0.03,-0.00,0.05
3.500,0.02,0.03,-0.01,0.04
3.510,0.02,0.03,-0.01,0.04
3.520,0.01,0.01,0.02,0.03
3.530,0.03,-0.01,0.06,0.06
3.540,0.04,0.00,0.04,0.06
3.550,0.03,0.03,-0.00,0.04
3.560,0.03,0.04,-0.02,0.05
3.570,0.03,0.03,-0.01,0.04
3.580,0.02,0.03,-0.02,0.04
3.590,0.01,0.00,-0.00,0.01
3.600,0.00,-0.02,0.01,0.02
3.610,-0.01,-0.04,0.04,0.05
3.620,-0.00,-0.04,0.04,0.05
3.631,0.01,-0.04,0.04,0.06
3.641,0.01,-0.03,0.05,0.06
3.651,0.01,-0.02,0.03,0.04
3.661,0.02,-0.03,0.02,0.04
3.671,-0.00,-0.00,0.03,0.03
3.681,-0.02,-0.01,0.03,0.04
3.691,-0.02,-0.01,0.02,0.03
3.701,0.01,0.01,0.04,0.04
3.711,0.01,0.00,0.04,0.04
3.721,0.01,-0.00,0.05,0.05
3.732,0.01,-0.01,0.05,0.05
3.741,0.02,-0.00,0.06,0.06
3.751,-0.00,0.01,0.04,0.04
3.761,0.00,-0.00,0.03,0.03
3.771,-0.00,0.01,0.03,0.03
3.781,-0.02,0.01,0.04,0.05
3.791,0.01,0.01,0.04,0.04
3.802,0.03,0.02,0.05,0.06
3.812,0.04,0.01,0.03,0.05
3.822,0.05,0.01,0.03,0.06
3.832,0.04,-0.01,0.02,0.05
3.842,0.00,-0.03,0.02,0.04
3.852,-0.01,-0.04,0.03,0.05
3.862,-0.02,-0.04,0.04,0.06
3.872,-0.00,-0.03,0.05,0.06
3.882,-0.00,0.01,0.05,0.05
3.892,0.00,0.03,0.04,0.05
3.902,0.01,0.02,0.01,0.03
3.912,0.01,0.02,-0.02,0.03
3.922,0.00,0.02,-0.03,0.04
3.932,0.01,-0.01,-0.04,0.04
3.942,0.00,-0.02,-0.02,0.02
3.952,0.02,-0.01,0.02,0.03
3.962,0.00,-0.01,0.03,0.04
3.972,-0.00,0.00,0.06,0.06
3.982,0.02,0.04,0.08,0.09
3.993,0.05,0.08,0.05,0.11
4.003,0.07,0.10,-0.02,0.13
4.013,0.08,0.11,-0.05,0.14
4.023,0.04,0.07,-0.07,0.11
4.033,0.01,0.02,-0.03,0.04
4.043,-0.01,-0.03,0.03,0.05
4.053,-0.05,-0.08,0.08,0.12
4.063,-0.04,-0.13,0.10,0.17
4.073,-0.03,-0.14,0.11,0.18
4.083,-0.01,-0.10,0.08,0.13
4.093,0.01,-0.06,0.06,0.09
4.103,0.00,-0.03,0.04,0.05
4.113,0.01,-0.00,0.02,0.03
4.123,0.01,-0.00,0.02,0.02
4.133,-0.00,-0.01,0.01,0.02
4.143,0.00,-0.01,-0.00,0.01
4.153,0.00,-0.01,0.02,0.03
4.164,-0.00,0.01,0.05,0.05
4.174,-0.00,0.03,0.07,0.07
4.184,-0.02,0.04,0.04,0.06
4.194,-0.01,0.07,0.04,0.08
4.204,0.02,0.07,0.00,0.07
4.214,0.00,0.09,-0.04,0.09
4.224,0.00,0.07,-0.01,0.07
4.234,0.00,0.04,0.03,0.05
4.244,0.02,0.01,0.02,0.03
4.254,0.03,-0.00,0.01,0.03
4.264,0.04,0.01,0.01,0.04
4.274,0.04,0.01,-0.02,0.04
4.284,0.02,0.03,-0.02,0.04
4.294,0.03,0.02,-0.01,0.04
4.304,0.04,-0.00,0.02,0.05
4.314,0.04,-0.01,0.03,0.05
4.324,0.05,-0.04,0.04,0.07
4.334,0.04,-0.05,0.06,0.09
4.345,0.04,-0.05,0.05,0.08
4.355,0.03,-0.04,0.04,0.06
4.365,0.02,-0.04,0.01,0.05
4.375,0.01,-0.01,0.02,0.02
4.385,-0.00,0.02,0.03,0.03
4.395,0.01,0.04,0.04,0.05
4.405,0.01,0.05,0.05,0.07
4.415,-0.00,0.05,0.06,0.07
4.425,-0.01,0.04,0.06,0.07
4.435,-0.02,0.01,0.04,0.04
4.445,-0.03,0.01,0.05,0.06
4.455,-0.02,-0.01,0.07,0.07
4.465,-0.01,-0.02,0.03,0.04
4.475,0.00,-0.03,0.05,0.06
4.486,0.01,-0.04,0.05,0.06
4.495,-0.01,-0.03,0.06,0.06
4.505,-0.01,-0.02,0.06,0.06
4.515,-0.02,-0.03,0.02,0.04
4.526,0.00,-0.02,0.01,0.02
4.536,-0.01,-0.01,0.00,0.02
4.546,0.00,-0.01,0.02,0.02
4.556,0.02,-0.00,0.01,0.02
4.566,0.03,0.00,0.02,0.04
4.576,0.03,-0.00,0.05,0.06
4.586,0.03,0.01,0.05,0.06
4.596,0.02,0.01,0.04,0.05
4.606,0.02,0.01,0.00,0.02
4.616,0.01,0.01,-0.04,0.04
4.626,0.01,0.02,-0.06,0.07
4.636,0.04,0.03,-0.05,0.07
4.646,0.05,0.03,-0.02,0.06
4.656,0.04,0.01,0.01,0.04
4.666,0.03,0.04,0.06,0.08
4.676,0.03,0.07,0.07,0.10
4.687,0.04,0.09,0.01,0.10
4.696,0.04,0.11,-0.06,0.13
4.706,0.02,0.10,-0.08,0.13
4.717,0.00,0.03,-0.05,0.06
4.727,-0.03,-0.03,0.00,0.04
4.737,-0.02,-0.08,0.07,0.11
4.747,-0.01,-0.13,0.10,0.16
4.757,0.01,-0.13,0.11,0.17
4.767,0.01,-0.13,0.09,0.16
4.777,0.01,-0.09,0.06,0.11
4.787,0.01,-0.06,0.03,0.07
4.797,-0.01,-0.03,0.03,0.05
4.807,-0.01,-0.01,0.02,0.03
4.817,0.00,0.01,0.03,0.03
4.827,0.01,-0.01,0.02,0.03
4.837,0.01,-0.00,0.00,0.01
4.847,0.01,0.01,0.03,0.03
4.857,0.02,0.04,0.04,0.06
4.868,-0.00,0.07,0.02,0.07
4.877,-0.02,0.09,-0.01,0.09
4.888,0.00,0.08,-0.02,0.09
4.898,0.01,0.06,-0.02,0.07
4.908,0.01,0.06,0.01,0.06
4.918,0.01,0.03,0.04,0.05
4.928,0.01,0.00,0.07,0.07
4.938,0.01,-0.00,0.05,0.05
4.948,0.00,0.03,0.01,0.03
4.958,-0.01,0.04,-0.02,0.04
4.968,-0.01,0.03,-0.02,0.04
4.978,0.02,0.00,-0.02,0.03
4.988,0.03,-0.00,0.00,0.03
4.998,0.03,-0.04,0.02,0.06
5.008,0.01,-0.07,0.04,0.08
5.018,0.01,-0.09,0.04,0.10
5.028,0.01,-0.10,0.06,0.11
5.038,0.02,-0.06,0.06,0.09
5.048,0.03,-0.05,0.06,0.08
5.058,0.04,-0.03,0.04,0.07
5.069,0.06,0.00,0.03,0.06
5.079,0.05,0.02,0.00,0.06
5.089,0.06,0.04,0.01,0.07
5.099,0.06,0.03,0.03,0.07
5.109,0.04,0.03,0.03,0.06
5.119,0.03,0.02,0.03,0.05
5.129,0.01,0.01,0.04,0.04
5.139,-0.01,0.02,0.03,0.03
5.149,-0.01,0.02,0.02,0.03
5.159,0.01,0.01,0.03,0.03
5.169,-0.00,0.00,0.04,0.04
5.179,-0.00,0.00,0.04,0.04
5.189,0.00,0.01,0.04,0.04
5.199,-0.01,0.01,0.02,0.03
5.209,-0.00,-0.01,0.03,0.03
5.219,-0.02,-0.00,0.02,0.03
5.230,-0.03,-0.01,-0.00,0.04
5.240,-0.04,-0.01,0.02,0.05
5.250,-0.03,-0.03,0.04,0.06
5.260,-0.03,-0.02,0.05,0.06
5.270,-0.04,-0.00,0.07,0.07
5.280,-0.01,0.00,0.06,0.06
5.290,0.00,-0.01,0.01,0.01
5.300,0.00,0.01,-0.02,0.02
5.310,0.01,0.01,-0.05,0.05
5.320,0.01,-0.00,-0.04,0.04
5.330,0.03,-0.01,-0.00,0.03
5.340,0.05,-0.00,0.05,0.07
5.350,0.06,0.00,0.10,0.11
5.360,0.07,0.03,0.12,0.14
5.370,0.09,0.07,0.04,0.12
5.380,0.10,0.09,-0.04,0.14
5.390,0.08,0.10,-0.10,0.16
5.401,0.02,0.07,-0.10,0.12
5.411,-0.00,-0.03,-0.04,0.05
5.421,-0.01,-0.10,0.05,0.11
5.431,-0.00,-0.15,0.10,0.18
5.441,0.00,-0.15,0.11,0.19
5.451,0.00,-0.11,0.08,0.14
5.461,0.01,-0.03,0.04,0.06
5.471,0.01,0.02,0.00,0.03
5.481,0.01,0.05,-0.01,0.05
5.491,-0.01,0.04,0.01,0.05
5.501,-0.02,0.01,0.02,0.03
5.511,-0.02,-0.00,0.03,0.04
5.521,-0.01,-0.01,0.04,0.04
5.531,-0.01,-0.00,0.04,0.04
5.541,-0.00,0.02,0.05,0.06
5.551,0.00,0.03,0.05,0.06
5.561,0.00,0.05,0.01,0.05
5.572,0.03,0.06,-0.02,0.06
5.582,0.03,0.04,-0.03,0.06
5.592,0.01,0.01,-0.02,0.02
5.602,0.00,-0.02,0.02,0.03
5.612,0.01,-0.05,0.05,0.07
5.622,0.02,-0.03,0.06,0.07
5.632,0.02,-0.00,0.03,0.04
5.642,0.02,0.04,0.01,0.04
5.652,0.00,0.05,-0.01,0.05
5.662,0.01,0.05,-0.02,0.05
5.672,0.01,0.03,-0.01,0.03
5.682,0.02,-0.01,0.01,0.02
5.692,0.02,-0.03,0.02,0.04
5.702,0.02,-0.06,0.03,0.07
5.712,0.03,-0.07,0.03,0.08
5.722,0.04,-0.06,0.03,0.07
5.732,0.05,-0.04,0.04,0.08
5.742,0.04,-0.03,0.03,0.06
5.753,0.03,-0.01,0.03,0.04
5.762,0.03,0.00,0.01,0.03
5.773,0.02,0.02,0.02,0.04
5.783,0.00,0.02,0.02,0.03
5.793,-0.00,0.02,0.05,0.05
5.803,0.01,0.01,0.05,0.05
5.813,0.00,0.00,0.04,0.04
5.823,0.01,0.02,0.05,0.05
5.833,0.01,0.01,0.03,0.04
5.843,-0.01,-0.00,0.02,0.03
5.853,-0.02,0.00,0.01,0.02
5.863,-0.00,0.00,0.01,0.01
5.873,-0.00,0.01,0.03,0.04
5.883,-0.00,0.03,0.02,0.04
5.893,0.00,0.01,0.01,0.01
5.903,0.02,-0.01,0.00,0.02
5.914,0.02,-0.01,0.00,0.02
5.923,0.01,-0.03,-0.00,0.03
5.934,0.02,-0.04,0.02,0.05
5.944,0.01,-0.03,0.04,0.05
5.954,-0.01,-0.02,0.06,0.06
5.964,-0.03,-0.00,0.08,0.08
5.974,-0.01,-0.01,0.07,0.07
5.984,-0.00,-0.01,0.03,0.03
5.994,0.00,-0.00,0.00,0.01
6.004,0.01,-0.01,-0.02,0.03
6.014,0.02,-0.00,-0.02,0.03
6.024,0.04,-0.01,-0.01,0.04
6.034,0.04,-0.02,0.03,0.05
6.044,0.04,0.00,0.07,0.08
6.054,0.05,0.04,0.07,0.10
6.064,0.07,0.08,0.04,0.11
6.074,0.07,0.12,-0.02,0.14
6.084,0.05,0.12,-0.05,0.14
6.094,0.01,0.06,-0.07,0.09
6.105,-0.01,-0.01,-0.01,0.02
6.115,-0.02,-0.06,0.06,0.08
6.125,-0.01,-0.12,0.11,0.17
6.135,-0.01,-0.15,0.15,0.21
6.145,-0.02,-0.13,0.11,0.17
6.155,-0.01,-0.10,0.11,0.15
6.165,-0.02,-0.05,0.08,0.09
6.175,-0.03,-0.02,0.09,0.09
6.185,-0.02,0.00,0.09,0.09
6.195,-0.02,-0.01,0.07,0.08
6.205,-0.00,-0.02,0.07,0.07
6.215,-0.00,-0.02,0.06,0.06
6.225,-0.01,-0.00,0.04,0.04
6.235,-0.01,-0.01,0.04,0.04
6.245,-0.01,0.02,0.02,0.03
6.255,-0.02,0.04,0.00,0.05
6.265,0.00,0.06,0.00,0.06
6.276,0.03,0.05,-0.04,0.07
6.285,0.04,0.02,-0.02,0.05
6.296,0.03,0.01,0.02,0.04
6.306,0.03,-0.02,0.01,0.04
6.316,0.02,-0.01,0.02,0.03
6.326,0.01,-0.00,0.02,0.02
6.336,0.01,0.01,0.02,0.03
6.346,0.01,0.01,0.01,0.02
6.356,0.02,0.03,0.01,0.04
6.366,0.03,0.02,0.00,0.04
6.376,0.04,-0.01,0.00,0.04
6.386,0.02,-0.03,-0.00,0.04
6.396,0.00,-0.05,0.00,0.05
6.406,-0.02,-0.05,0.02,0.06
6.416,-0.03,-0.05,0.06,0.08
6.426,-0.02,-0.04,0.07,0.08
6.436,0.00,-0.02,0.04,0.04
6.446,-0.00,-0.01,0.03,0.03
6.457,0.00,0.01,0.02,0.02
6.467,0.00,0.02,0.03,0.04
6.477,0.01,0.01,0.03,0.04
6.487,-0.03,0.00,0.05,0.05
6.497,-0.03,-0.00,0.07,0.07
6.507,-0.02,0.01,0.09,0.10
6.517,-0.03,-0.02,0.08,0.09
6.527,-0.02,-0.01,0.08,0.09
6.537,-0.02,-0.02,0.06,0.06
6.547,0.00,-0.02,0.02,0.03
6.557,0.03,-0.00,0.01,0.03
6.567,0.02,0.00,-0.02,0.03
6.577,-0.00,-0.00,-0.03,0.03
6.587,-0.02,0.01,-0.01,0.03
6.597,-0.02,0.01,0.01,0.03
6.607,0.01,-0.01,0.03,0.03
6.617,0.01,-0.03,0.05,0.06
6.627,0.02,-0.04,0.06,0.07
6.638,0.03,-0.05,0.04,0.07
6.647,0.04,-0.04,0.04,0.07
6.658,0.03,-0.01,0.04,0.05
6.668,0.03,0.02,0.01,0.03
6.678,0.01,0.02,0.01,0.03
6.688,-0.00,0.03,0.02,0.04
6.698,-0.01,0.02,0.04,0.05
6.708,-0.00,-0.00,0.04,0.05
6.718,0.00,-0.01,0.04,0.04
6.728,0.00,-0.02,0.00,0.02
6.738,0.01,-0.02,-0.03,0.04
6.748,0.04,-0.01,-0.03,0.05
6.758,0.03,-0.01,-0.03,0.04
6.768,0.02,-0.02,0.01,0.03
6.778,0.01,0.01,0.07,0.07
6.788,0.03,0.04,0.08,0.10
6.798,0.05,0.08,0.01,0.10
6.808,0.06,0.12,-0.06,0.15
6.819,0.05,0.13,-0.09,0.16
6.828,0.02,0.07,-0.08,0.11
6.839,-0.02,0.01,-0.02,0.03
6.849,-0.02,-0.08,0.08,0.11
6.859,-0.04,-0.14,0.11,0.18
6.869,-0.04,-0.15,0.13,0.20
6.879,-0.03,-0.14,0.09,0.17
6.889,-0.01,-0.05,0.06,0.08
6.899,-0.02,-0.01,0.02,0.03
6.909,-0.01,0.02,0.01,0.02
6.919,-0.03,0.01,-0.01,0.03
6.929,-0.03,0.00,0.01,0.03
6.939,-0.03,-0.02,-0.01,0.03
6.949,-0.02,-0.02,0.02,0.03
6.959,-0.01,0.01,0.04,0.04
6.969,0.00,0.02,0.04,0.05
6.979,0.00,0.05,0.03,0.06
6.990,0.03,0.06,0.00,0.07
7.000,0.06,0.05,-0.03,0.09
7.010,0.06,0.03,-0.01,0.07
7.020,0.05,-0.00,0.01,0.05
7.030,0.05,-0.03,0.05,0.08
7.040,0.03,-0.04,0.07,0.09
7.050,0.03,-0.02,0.07,0.08
7.060,0.03,-0.00,0.03,0.04
7.070,0.03,0.04,-0.02,0.05
7.080,0.03,0.05,-0.04,0.08
7.090,0.03,0.04,-0.05,0.07
7.100,0.03,0.01,-0.02,0.03
7.110,0.02,-0.02,0.01,0.03
7.120,-0.01,-0.05,0.02,0.06
7.130,-0.02,-0.07,0.04,0.08
7.140,-0.03,-0.06,0.07,0.09
7.150,-0.01,-0.03,0.08,0.08
7.160,-0.01,-0.01,0.07,0.07
7.171,0.00,-0.00,0.04,0.04
7.181,0.00,0.02,0.02,0.03
7.191,0.01,0.04,0.03,0.05
7.201,0.00,0.03,0.01,0.03
7.211,-0.02,0.01,0.04,0.05
7.221,-0.02,0.00,0.05,0.06
7.231,-0.02,-0.01,0.04,0.04
7.241,0.00,-0.01,0.03,0.03
7.251,0.02,0.01,0.03,0.03
7.261,0.03,0.02,0.02,0.04
7.271,0.03,-0.00,0.00,0.03
7.281,0.01,-0.00,0.01,0.02
7.291,0.00,-0.01,0.03,0.03
7.301,-0.01,-0.01,0.03,0.03
7.311,0.00,-0.00,0.05,0.05
7.321,-0.01,-0.00,0.04,0.04
7.331,0.00,-0.00,0.01,0.01
7.342,0.01,0.01,0.02,0.03
7.351,0.02,-0.01,0.03,0.04
7.362,0.02,-0.03,0.04,0.05
7.372,0.02,-0.03,0.04,0.05
7.382,0.03,-0.02,0.06,0.07
7.392,0.03,-0.03,0.07,0.08
7.402,0.03,-0.01,0.04,0.05
7.412,0.01,-0.00,0.01,0.01
7.422,0.00,0.00,0.00,0.01
7.432,0.01,-0.00,-0.00,0.01
7.442,0.01,-0.01,0.01,0.02
7.452,0.01,-0.01,0.03,0.04
7.462,-0.00,-0.00,0.04,0.04
7.472,-0.02,0.01,0.07,0.07
7.482,-0.03,0.01,0.07,0.08
7.492,-0.04,0.02,0.05,0.06
7.502,-0.02,0.01,0.00,0.02
7.512,-0.01,-0.02,-0.03,0.04
7.523,-0.00,-0.02,-0.07,0.07
7.533,0.02,0.01,-0.04,0.05
7.543,0.02,-0.01,-0.01,0.03
7.553,0.02,-0.01,0.05,0.06
7.563,0.02,0.02,0.08,0.09
7.573,0.04,0.06,0.09,0.11
7.583,0.06,0.09,0.02,0.11
7.593,0.05,0.10,-0.06,0.12
7.603,0.02,0.08,-0.08,0.12
7.613,-0.02,0.05,-0.08,0.09
7.623,-0.03,-0.04,-0.01,0.05
7.633,-0.02,-0.09,0.06,0.11
7.643,-0.02,-0.14,0.10,0.17
7.653,-0.02,-0.15,0.11,0.19
7.663,-0.01,-0.10,0.08,0.12
7.673,-0.02,-0.06,0.03,0.07
7.684,-0.02,0.01,0.02,0.03
7.693,-0.03,0.04,0.02,0.05
7.704,-0.01,0.03,0.02,0.04
7.714,-0.02,0.01,0.04,0.05
7.724,-0.01,-0.01,0.03,0.03
7.734,0.01,-0.02,0.06,0.06
7.744,0.03,-0.02,0.05,0.06
7.754,0.02,-0.01,0.05,0.06
7.764,0.01,0.01,0.05,0.05
7.774,0.01,0.03,0.03,0.04
7.784,0.02,0.03,-0.01,0.04
7.794,0.02,0.03,-0.03,0.05
7.804,0.02,0.02,-0.02,0.04
7.815,0.03,-0.00,0.00,0.03
7.824,0.04,-0.01,0.05,0.07
7.834,0.05,-0.01,0.07,0.08
7.844,0.04,-0.00,0.03,0.05
7.854,0.02,0.03,0.03,0.04
7.864,0.02,0.05,-0.00,0.05
7.874,0.01,0.06,-0.03,0.07
7.885,-0.01,0.06,-0.03,0.07
7.895,-0.00,0.03,-0.02,0.04
7.905,-0.00,-0.00,0.01,0.01
7.915,-0.01,-0.02,0.02,0.03
7.925,-0.01,-0.03,0.06,0.07
7.935,-0.01,-0.04,0.07,0.08
7.945,-0.03,-0.04,0.08,0.10
7.955,-0.03,-0.03,0.08,0.09
7.965,-0.02,-0.02,0.07,0.07
7.975,-0.04,-0.01,0.04,0.05
7.985,-0.03,-0.01,0.03,0.04
7.995,-0.01,-0.01,0.04,0.04
8.005,0.01,-0.01,0.03,0.04
8.015,-0.00,-0.04,0.06,0.07
8.025,-0.02,-0.03,0.06,0.07
8.035,-0.02,-0.02,0.05,0.06
8.045,-0.01,-0.02,0.04,0.05
8.055,0.00,-0.03,0.02,0.04
8.066,0.03,-0.02,0.02,0.04
8.076,0.01,-0.01,0.01,0.02
8.086,0.01,-0.00,0.01,0.02
8.096,0.01,0.01,0.03,0.03
8.106,0.03,0.01,0.03,0.04
8.116,0.03,-0.00,0.04,0.05
8.126,0.01,-0.02,0.05,0.05
8.136,0.02,-0.04,0.05,0.07
8.146,0.02,-0.01,0.05,0.06
8.156,0.02,-0.00,0.02,0.03
8.166,0.03,0.01,0.00,0.03
8.176,0.02,0.03,0.00,0.04
8.186,0.02,0.03,-0.00,0.03
8.196,0.01,0.03,0.01,0.03
8.207,0.01,0.02,0.03,0.03
8.216,0.00,0.02,0.05,0.05
8.226,0.00,0.01,0.05,0.05
8.237,0.01,-0.00,0.03,0.03
8.247,0.00,0.00,0.01,0.01
8.257,-0.01,0.01,0.01,0.02
8.267,-0.00,0.02,0.02,0.03
8.277,-0.03,0.02,0.02,0.04
8.287,-0.05,0.00,0.02,0.06
8.297,-0.06,-0.01,0.04,0.07
8.307,-0.06,-0.01,0.05,0.08
8.317,-0.05,-0.03,0.04,0.07
8.327,-0.03,-0.03,0.02,0.05
8.337,-0.01,-0.05,-0.02,0.06
8.347,-0.01,-0.04,-0.04,0.06
8.357,0.02,-0.04,-0.02,0.05
8.367,0.02,-0.02,0.03,0.04
8.377,0.01,-0.02,0.05,0.06
8.387,0.03,-0.00,0.09,0.10
8.397,0.06,0.05,0.07,0.10
8.408,0.05,0.07,-0.02,0.09
8.418,0.05,0.09,-0.07,0.12
8.428,0.02,0.04,-0.06,0.08
8.438,-0.00,0.01,-0.05,0.05
8.448,0.01,-0.03,0.05,0.06
8.458,0.01,-0.07,0.12,0.14
8.468,0.03,-0.08,0.12,0.15
8.478,0.03,-0.08,0.08,0.12
8.488,0.05,-0.05,0.05,0.09
8.498,0.06,-0.01,0.03,0.07
8.508,0.03,0.02,0.03,0.05
8.518,-0.00,0.04,0.03,0.05
8.528,0.01,0.03,0.02,0.04
8.538,0.01,0.03,0.02,0.04
8.548,0.01,0.03,0.02,0.04
8.558,-0.01,0.02,0.01,0.02
8.568,-0.01,0.02,0.05,0.06
8.578,-0.02,0.03,0.05,0.06
8.589,-0.04,0.06,0.04,0.08
8.598,-0.02,0.06,-0.01,0.06
8.609,-0.01,0.04,-0.03,0.05
8.619,-0.02,0.01,-0.03,0.04
8.629,-0.01,-0.01,0.01,0.02
8.639,-0.01,-0.04,0.04,0.06
8.649,-0.00,-0.05,0.06,0.08
8.659,-0.00,-0.03,0.05,0.06
8.669,0.01,-0.01,0.01,0.02
8.679,-0.01,0.01,-0.01,0.02
8.689,-0.00,0.03,-0.03,0.04
8.699,0.01,0.03,-0.04,0.05
8.709,0.02,-0.00,-0.04,0.04
8.719,0.02,-0.02,-0.01,0.03
8.729,0.03,-0.04,0.02,0.05
8.739,0.03,-0.04,0.03,0.06
8.749,0.04,-0.04,0.04,0.07
8.759,0.05,-0.01,0.05,0.07
8.770,0.05,-0.01,0.04,0.06
8.780,0.02,0.02,0.04,0.05
8.790,0.02,0.04,0.03,0.05
8.800,0.04,0.04,0.02,0.06
8.810,0.04,0.03,0.01,0.05
8.820,0.05,0.02,0.02,0.06
8.830,0.03,0.00,0.04,0.05
8.840,0.01,-0.01,0.03,0.03
8.850,-0.01,-0.02,0.04,0.05
8.860,-0.01,-0.01,0.03,0.03
8.870,-0.02,-0.01,0.02,0.04
8.880,-0.01,0.00,0.02,0.03
8.890,-0.02,-0.00,0.01,0.03
8.900,-0.02,0.01,0.01,0.02
8.910,-0.03,0.01,0.03,0.04
8.920,-0.01,-0.01,0.04,0.04
8.930,-0.03,-0.02,0.05,0.06
8.940,-0.02,0.00,0.05,0.05
8.951,-0.02,-0.01,0.04,0.05
8.961,-0.01,-0.01,0.04,0.05
8.971,0.01,-0.00,0.03,0.04
8.981,0.03,-0.00,0.03,0.04
8.991,0.04,-0.01,0.02,0.05
9.001,0.04,-0.00,0.01,0.04
9.011,0.02,-0.00,-0.00,0.02
9.021,0.01,0.00,0.01,0.01
9.031,0.01,0.00,0.03,0.03
9.041,0.01,0.00,0.04,0.05
9.051,0.02,-0.01,0.05,0.05
9.061,0.01,-0.02,0.06,0.06
9.071,0.01,-0.00,0.07,0.07
9.081,0.00,0.01,0.03,0.03
9.091,-0.00,-0.00,-0.01,0.01
9.101,-0.01,-0.01,-0.04,0.04
9.111,0.00,-0.00,-0.05,0.05
9.122,0.03,-0.01,-0.04,0.05
9.131,0.04,-0.02,0.02,0.05
9.142,0.03,-0.02,0.08,0.08
9.152,0.02,0.00,0.11,0.12
9.162,0.06,0.03,0.12,0.14
9.172,0.06,0.07,0.05,0.11
9.182,0.05,0.08,-0.02,0.09
9.192,0.02,0.07,-0.07,0.10
9.202,-0.01,0.02,-0.07,0.08
9.212,-0.03,-0.02,0.00,0.03
9.222,-0.04,-0.08,0.06,0.10
9.232,-0.05,-0.12,0.09,0.16
9.242,-0.03,-0.12,0.08,0.15
9.252,-0.02,-0.08,0.07,0.10
9.262,-0.02,-0.05,0.03,0.06
9.272,-0.03,-0.01,0.02,0.04
9.282,-0.03,0.00,0.02,0.04
9.292,-0.01,0.01,0.05,0.05
9.303,-0.01,0.01,0.05,0.05
9.313,-0.00,-0.00,0.05,0.05
9.323,0.01,0.01,0.05,0.05
9.333,0.00,-0.00,0.06,0.06
9.343,0.02,0.01,0.07,0.07
9.353,0.02,0.02,0.06,0.06
9.363,0.03,0.03,0.02,0.05
9.373,0.04,0.03,0.01,0.05
9.383,0.03,0.00,-0.02,0.04
9.393,0.02,0.00,-0.01,0.02
9.403,0.03,-0.02,0.00,0.04
9.413,0.02,-0.02,0.02,0.04
9.423,0.02,0.00,0.03,0.04
9.433,0.03,0.03,0.04,0.06
9.443,0.02,0.04,0.01,0.05
9.453,0.01,0.04,-0.02,0.05
9.463,0.01,0.04,-0.00,0.05
9.474,0.01,-0.00,0.02,0.02
9.484,0.01,-0.02,0.02,0.03
9.494,-0.01,-0.05,0.04,0.06
9.504,-0.02,-0.06,0.03,0.07
9.514,-0.00,-0.04,0.04,0.06
9.524,0.00,-0.03,0.04,0.05
9.534,-0.00,-0.04,0.03,0.05
9.544,0.00,-0.02,0.04,0.04
9.554,-0.01,-0.02,0.04,0.05
9.564,-0.00,0.01,0.04,0.04
9.574,0.02,-0.00,0.04,0.04
9.584,0.00,-0.00,0.04,0.04
9.594,0.01,0.01,0.02,0.03
9.604,-0.00,0.01,0.03,0.03
9.614,-0.02,0.01,0.04,0.04
9.624,0.01,0.02,0.03,0.04
9.635,-0.01,0.02,0.01,0.02
9.644,0.00,0.02,0.02,0.03
9.655,0.01,0.00,0.02,0.02
9.665,0.03,0.02,0.04,0.05
9.675,0.02,0.01,0.04,0.05
9.685,0.03,0.00,0.05,0.06
9.695,0.01,-0.00,0.06,0.07
9.705,0.01,-0.03,0.08,0.08
9.715,0.01,-0.02,0.08,0.08
9.725,0.01,-0.03,0.08,0.09
9.735,0.01,-0.05,0.06,0.08
9.745,0.00,-0.03,0.05,0.06
9.755,-0.01,-0.03,0.02,0.04
9.765,-0.01,-0.02,0.00,0.03
9.775,-0.01,-0.02,0.01,0.02
9.785,-0.00,-0.01,0.02,0.02
9.795,-0.00,-0.02,0.03,0.04
9.805,-0.01,-0.01,0.07,0.07
9.815,-0.01,-0.02,0.06,0.07
9.826,-0.01,-0.01,0.04,0.04
9.836,0.01,-0.01,-0.00,0.01
9.846,0.01,0.00,-0.02,0.02
9.856,0.03,0.02,-0.05,0.06
9.866,0.05,0.01,-0.02,0.05
9.876,0.04,-0.00,-0.00,0.04
9.886,0.03,0.01,0.05,0.06
9.896,0.02,0.04,0.10,0.11
9.906,0.05,0.08,0.06,0.11
9.916,0.04,0.10,-0.01,0.11
9.926,0.04,0.11,-0.05,0.13
9.936,0.02,0.08,-0.05,0.10
9.946,-0.01,-0.02,-0.02,0.03
9.956,-0.02,-0.08,0.05,0.09
9.966,-0.04,-0.12,0.11,0.17
9.976,-0.05,-0.14,0.13,0.20
9.986,-0.04,-0.13,0.09,0.17
9.997,-0.04,-0.08,0.05,0.10
10.006,-0.04,-0.03,0.03,0.05
10.017,-0.03,-0.01,0.02,0.03
10.026,-0.01,-0.01,0.05,0.05
10.037,-0.01,-0.04,0.05,0.06
10.047,-0.01,-0.03,0.04,0.05
10.057,0.01,-0.02,0.04,0.04
10.067,0.01,0.00,0.04,0.04
10.077,0.01,0.01,0.04,0.05
10.087,0.03,0.03,0.03,0.05
10.097,0.04,0.05,0.04,0.07
10.107,0.05,0.07,0.00,0.09
10.117,0.06,0.06,-0.02,0.09
10.127,0.05,0.03,-0.03,0.07
10.137,0.03,-0.00,-0.03,0.04
10.147,0.03,-0.03,0.01,0.04
10.158,0.01,-0.05,0.01,0.05
10.168,0.00,-0.03,0.03,0.04
10.177,0.01,0.02,0.03,0.03
10.187,-0.02,0.05,-0.01,0.05
10.198,-0.01,0.05,-0.03,0.06
10.208,-0.01,0.05,-0.02,0.06
10.218,0.01,0.02,-0.01,0.02
10.228,0.00,-0.03,0.01,0.03
10.238,-0.01,-0.08,0.04,0.09
10.248,-0.00,-0.09,0.03,0.10
10.258,0.01,-0.08,0.03,0.08
10.268,-0.01,-0.07,0.03,0.08
10.278,0.00,-0.05,0.01,0.05
10.288,-0.01,-0.01,0.00,0.01
10.298,-0.02,0.01,-0.01,0.03
10.308,-0.02,0.04,-0.01,0.05
10.318,0.00,0.03,0.01,0.03
10.328,0.02,0.03,0.02,0.04
10.338,0.03,0.02,0.04,0.05
10.348,0.03,0.01,0.04,0.05
10.359,0.03,0.00,0.03,0.04
10.369,0.01,0.01,0.02,0.02
10.379,0.02,0.02,0.01,0.03
10.389,-0.02,0.01,0.01,0.03
10.399,-0.02,0.01,0.04,0.04
10.409,-0.01,0.01,0.04,0.04
10.419,-0.01,-0.01,0.04,0.04
10.429,0.01,-0.03,0.06,0.06
10.439,0.02,-0.02,0.05,0.06
10.449,0.03,-0.02,0.04,0.05
10.459,0.02,-0.02,0.01,0.03
10.469,0.00,-0.05,0.03,0.05
10.479,0.00,-0.04,0.03,0.05
10.489,0.00,-0.04,0.03,0.05
10.499,-0.00,-0.02,0.05,0.05
10.509,-0.01,-0.01,0.02,0.02
10.519,-0.02,-0.00,0.02,0.02
10.529,-0.02,0.01,0.03,0.04
10.540,-0.01,0.03,0.04,0.05
10.550,0.01,0.02,0.02,0.03
10.560,0.00,0.00,-0.01,0.01
10.570,0.02,0.00,-0.05,0.05
10.580,0.04,-0.01,-0.06,0.07
10.590,0.05,-0.00,-0.04,0.07
10.600,0.06,-0.01,0.01,0.06
10.610,0.03,0.00,0.05,0.06
10.620,0.04,0.03,0.09,0.10
10.630,0.04,0.08,0.07,0.11
10.640,0.04,0.11,0.00,0.12
10.650,0.03,0.12,-0.06,0.14
10.660,0.01,0.08,-0.08,0.12
10.670,-0.02,0.03,-0.07,0.07
10.680,-0.03,-0.05,-0.01,0.06
10.690,-0.03,-0.10,0.05,0.11
10.701,-0.03,-0.12,0.08,0.14
10.711,-0.02,-0.11,0.09,0.15
10.721,-0.01,-0.08,0.05,0.09
10.731,-0.00,-0.04,0.03,0.05
10.741,-0.01,-0.02,0.02,0.03
10.751,-0.01,0.01,0.03,0.03
10.761,0.00,0.00,0.02,0.02
10.771,-0.00,0.00,0.03,0.03
10.781,0.02,-0.00,0.03,0.04
10.791,0.02,-0.01,0.03,0.03
10.801,0.02,-0.00,0.03,0.03
10.811,0.02,0.01,0.04,0.05
10.821,0.01,0.02,0.04,0.04
10.831,0.03,0.04,0.02,0.06
10.841,0.05,0.05,0.01,0.07
10.851,0.04,0.04,-0.01,0.06
10.861,0.02,0.03,-0.03,0.04
10.871,0.02,0.01,-0.01,0.02
10.881,0.01,-0.02,-0.01,0.02
10.892,0.01,-0.02,-0.02,0.02
10.902,-0.00,-0.00,-0.01,0.01
10.912,-0.01,0.01,-0.00,0.02
10.922,0.01,0.04,-0.01,0.04
10.932,-0.02,0.05,-0.01,0.05
10.942,-0.01,0.03,-0.01,0.03
10.952,0.01,0.01,0.00,0.02
10.962,0.03,-0.02,0.01,0.03
10.972,0.02,-0.04,0.03,0.05
10.982,0.02,-0.05,0.03,0.07
10.992,0.02,-0.04,0.04,0.06
11.002,0.02,-0.04,0.04,0.06
11.012,0.01,-0.01,0.03,0.04
11.022,-0.00,0.00,0.04,0.04
11.032,0.00,0.03,0.03,0.04
11.043,0.01,0.02,0.03,0.04
11.052,0.03,0.03,0.02,0.05
11.062,0.04,0.03,0.03,0.06
11.073,0.04,0.02,0.00,0.04
11.083,0.03,0.00,0.02,0.04
11.093,0.02,-0.01,0.01,0.02
11.103,0.00,-0.01,0.02,0.03
11.113,-0.01,-0.02,0.03,0.03
11.123,0.01,0.00,0.03,0.03
11.133,0.00,0.01,0.03,0.03
11.143,-0.01,0.01,0.03,0.03
11.153,-0.00,0.02,0.00,0.02
11.163,-0.02,0.02,0.01,0.03
11.173,-0.00,0.01,0.02,0.03
11.183,0.02,0.02,0.05,0.06
11.193,0.03,0.01,0.09,0.09
11.203,0.02,0.00,0.10,0.11
11.213,0.02,-0.00,0.13,0.13
11.224,0.01,-0.04,0.16,0.16
11.233,0.01,-0.06,0.17,0.18
11.244,0.02,-0.07,0.18,0.19
11.254,0.02,-0.08,0.17,0.19
11.264,0.02,-0.08,0.12,0.14
11.274,0.01,-0.07,0.10,0.13
11.284,-0.01,-0.05,0.07,0.09
11.294,-0.04,-0.04,0.03,0.06
11.304,-0.04,-0.04,0.01,0.06
11.314,-0.04,-0.03,0.00,0.05
11.324,-0.03,-0.05,0.01,0.05
11.334,-0.01,-0.03,0.03,0.04
11.344,0.02,-0.02,0.05,0.06
11.354,0.03,-0.01,0.07,0.07
11.364,0.03,0.02,0.08,0.09
11.374,0.03,0.05,0.06,0.08
11.384,0.06,0.07,-0.01,0.09
11.394,0.05,0.10,-0.08,0.14
11.404,0.03,0.11,-0.08,0.14
11.414,0.00,0.08,-0.06,0.10
11.425,-0.03,0.04,-0.00,0.05
11.435,-0.03,-0.01,0.06,0.07
11.445,-0.01,-0.05,0.10,0.11
11.455,-0.01,-0.08,0.11,0.13
11.465,-0.01,-0.08,0.07,0.10
11.475,-0.02,-0.07,0.03,0.08
11.485,-0.01,-0.08,0.02,0.08
11.495,-0.01,-0.07,0.02,0.08
11.505,-0.02,-0.07,0.03,0.08
11.515,-0.01,-0.07,0.05,0.09
11.525,-0.02,-0.05,0.07,0.09
11.535,-0.02,-0.04,0.04,0.06
11.545,-0.01,-0.03,0.06,0.07
11.555,0.00,-0.02,0.06,0.06
11.565,-0.02,0.01,0.05,0.05
11.575,-0.02,0.02,0.06,0.06
11.586,-0.00,0.02,0.04,0.05
11.596,0.00,0.01,0.01,0.02
11.606,0.01,0.01,-0.00,0.01
11.616,0.01,0.01,-0.01,0.02
11.626,0.01,0.00,0.02,0.02
11.636,0.01,0.00,0.01,0.01
11.646,0.00,0.02,0.02,0.03
11.656,-0.00,0.03,0.02,0.04
11.666,0.01,0.04,0.01,0.05
11.676,0.01,0.04,-0.00,0.05
11.686,-0.00,0.02,-0.00,0.02
11.696,0.00,0.01,0.00,0.01
11.706,-0.02,-0.02,0.01,0.03
11.716,-0.03,-0.06,0.02,0.07
11.726,-0.02,-0.07,0.03,0.08
11.736,-0.01,-0.06,0.03,0.07
11.746,0.01,-0.05,0.04,0.06
11.756,0.01,-0.04,0.04,0.05
11.767,0.01,-0.03,0.03,0.04
11.776,-0.00,-0.02,0.02,0.03
11.787,-0.00,-0.01,0.02,0.02
11.797,-0.02,-0.01,0.01,0.02
11.807,-0.02,-0.01,0.03,0.03
11.817,-0.00,-0.00,0.04,0.04
11.827,-0.00,-0.00,0.04,0.04
11.837,0.01,-0.00,0.05,0.05
11.847,0.00,-0.02,0.05,0.06
11.857,0.00,-0.02,0.04,0.05
11.867,-0.01,-0.01,0.02,0.02
11.877,-0.02,0.00,0.01,0.02
11.887,-0.02,0.01,0.00,0.02
11.897,-0.01,0.02,0.01,0.03
11.907,-0.01,0.02,-0.00,0.02
11.917,-0.02,0.01,0.01,0.02
11.927,-0.01,0.00,0.03,0.03
11.937,0.01,-0.01,0.03,0.03
11.947,0.01,-0.03,0.05,0.06
11.957,0.01,-0.04,0.05,0.07
11.968,0.01,-0.03,0.04,0.05
11.978,0.00,-0.03,0.03,0.05
11.988,-0.02,-0.04,0.00,0.04
11.998,-0.01,-0.01,0.01,0.02
12.008,-0.01,0.00,0.02,0.02
12.018,-0.02,-0.01,0.01,0.03
12.028,-0.01,-0.01,0.04,0.04
12.038,0.01,-0.01,0.02,0.02
12.048,0.00,-0.02,0.00,0.02
12.058,-0.02,-0.03,-0.02,0.04
12.068,-0.03,-0.02,-0.05,0.06
12.078,-0.01,-0.01,-0.06,0.06
12.088,0.00,-0.00,-0.04,0.04
12.098,0.02,-0.00,-0.03,0.03
12.109,0.04,0.01,0.01,0.04
12.118,0.06,0.03,0.03,0.08
12.128,0.07,0.08,-0.03,0.11
12.139,0.05,0.09,-0.11,0.15
12.148,0.01,0.10,-0.15,0.18
12.159,-0.02,0.08,-0.14,0.16
12.169,-0.06,0.03,-0.08,0.10
12.179,-0.05,-0.02,0.04,0.07
12.189,-0.04,-0.08,0.08,0.12
12.199,-0.01,-0.10,0.10,0.15
12.209,0.02,-0.09,0.10,0.14
12.219,0.04,-0.07,0.07,0.10
12.229,0.03,-0.04,0.06,0.08
12.239,0.01,-0.03,0.05,0.06
12.249,-0.01,-0.01,0.06,0.06
12.259,-0.03,-0.01,0.05,0.06
12.269,-0.02,-0.02,0.06,0.06
12.279,-0.01,-0.02,0.06,0.06
12.290,-0.02,-0.03,0.05,0.06
12.300,0.01,-0.02,0.08,0.08
12.310,0.02,-0.01,0.05,0.06
12.320,0.03,0.01,0.02,0.04
12.330,0.04,0.01,-0.00,0.04
12.340,0.03,0.01,-0.02,0.04
12.350,0.02,-0.01,0.00,0.02
12.360,0.02,-0.03,0.02,0.04
12.370,0.02,-0.02,0.04,0.05
12.380,0.01,-0.00,0.04,0.05
12.390,0.02,0.02,0.03,0.04
12.400,0.01,0.04,0.00,0.04
12.410,0.01,0.04,-0.01,0.04
12.420,-0.03,0.04,-0.02,0.05
12.430,-0.00,0.03,0.00,0.03
12.440,0.00,0.01,0.02,0.02
12.450,-0.01,-0.02,0.02,0.03
12.460,-0.01,-0.04,0.03,0.05
12.470,-0.01,-0.03,0.03,0.04
12.480,0.00,-0.02,0.04,0.05
12.491,-0.00,-0.04,0.05,0.06
12.501,0.00,-0.04,0.06,0.07
12.511,-0.01,-0.04,0.04,0.06
12.521,-0.01,-0.03,0.03,0.04
12.531,-0.02,-0.02,0.03,0.04
12.541,-0.02,-0.02,0.04,0.05
12.551,-0.00,-0.01,0.07,0.07
12.561,-0.00,-0.00,0.07,0.07
12.571,0.01,-0.02,0.05,0.06
12.581,0.01,-0.01,0.05,0.06
12.591,0.03,-0.01,0.03,0.05
12.601,0.03,-0.03,0.04,0.06
12.611,0.04,-0.02,0.04,0.07
12.621,0.01,-0.01,0.03,0.03
12.631,0.02,-0.01,0.03,0.04
12.641,0.01,0.02,-0.01,0.03
12.652,0.00,0.03,-0.01,0.03
12.661,-0.01,0.02,-0.00,0.02
12.672,-0.02,-0.01,0.01,0.02
12.682,-0.01,-0.01,0.04,0.04
12.692,-0.02,-0.03,0.05,0.06
12.702,-0.02,-0.02,0.07,0.07
12.712,-0.02,-0.02,0.05,0.05
12.722,-0.02,0.00,0.01,0.03
12.732,-0.01,0.01,0.01,0.02
12.742,-0.00,0.01,-0.02,0.02
12.752,0.01,0.00,-0.03,0.03
12.762,0.03,0.01,0.02,0.04
12.772,0.04,-0.01,0.05,0.07
12.782,0.05,-0.00,0.08,0.09
12.792,0.07,0.03,0.09,0.12
12.802,0.07,0.07,0.02,0.10
12.812,0.06,0.07,-0.05,0.11
12.822,0.05,0.08,-0.08,0.12
12.832,0.00,0.05,-0.07,0.09
12.843,-0.04,-0.00,-0.01,0.04
12.853,-0.03,-0.05,0.07,0.09
12.863,-0.05,-0.10,0.09,0.14
12.873,-0.03,-0.11,0.08,0.14
12.883,-0.02,-0.10,0.05,0.12
12.893,-0.01,-0.04,0.01,0.04
12.903,-0.01,-0.01,0.03,0.03
12.913,-0.01,0.00,0.04,0.04
12.923,-0.01,0.00,0.05,0.05
12.933,-0.02,-0.01,0.04,0.05
12.943,-0.01,0.00,0.03,0.03
12.953,-0.01,-0.00,0.02,0.03
12.963,0.00,0.01,0.04,0.04
12.973,0.01,0.02,0.04,0.04
12.983,0.03,0.03,0.04,0.06
12.993,0.05,0.04,0.03,0.07
13.003,0.04,0.04,-0.00,0.06
13.014,0.04,0.03,-0.00,0.06
13.024,0.04,0.01,0.00,0.04
13.034,0.02,0.01,0.03,0.04
13.044,0.01,0.01,0.04,0.04
13.054,0.00,-0.00,0.03,0.03
13.064,-0.01,0.01,0.02,0.03
13.074,0.01,0.03,0.02,0.04
13.084,0.03,0.04,-0.02,0.05
13.094,0.02,0.04,-0.03,0.05
13.104,0.02,0.02,-0.00,0.03
13.114,0.00,-0.01,0.01,0.01
13.124,-0.01,-0.05,0.03,0.06
13.134,-0.03,-0.06,0.06,0.09
13.144,-0.02,-0.07,0.08,0.11
13.154,0.01,-0.04,0.08,0.09
13.164,0.02,-0.04,0.07,0.09
13.174,0.02,-0.02,0.04,0.05
13.184,0.02,-0.01,0.03,0.04
13.195,0.01,0.01,0.00,0.02
13.205,0.00,0.02,-0.01,0.02
13.215,0.01,0.01,0.02,0.03
13.225,-0.01,0.00,0.06,0.06
13.235,-0.02,0.00,0.07,0.07
13.245,-0.02,0.00,0.07,0.08
13.255,-0.00,0.02,0.05,0.05
13.265,0.00,0.02,0.03,0.04
13.275,0.02,0.03,0.04,0.05
13.285,0.02,0.02,0.02,0.04
13.295,0.02,0.02,0.02,0.03
13.305,0.04,0.01,0.05,0.06
13.315,0.02,-0.02,0.04,0.05
13.325,0.02,-0.03,0.04,0.05
13.335,0.00,-0.04,0.05,0.06
13.345,-0.02,-0.04,0.03,0.05
13.356,-0.01,-0.04,0.02,0.05
13.366,-0.00,-0.03,0.01,0.03
13.376,-0.03,-0.01,0.02,0.04
13.386,-0.05,-0.01,0.03,0.06
13.396,-0.04,-0.01,0.04,0.05
13.406,-0.03,-0.00,0.06,0.07
13.416,-0.01,0.00,0.04,0.04
13.426,-0.01,-0.01,-0.00,0.01
13.436,-0.01,-0.01,-0.03,0.03
13.446,-0.01,-0.00,-0.04,0.05
13.456,0.02,0.00,-0.02,0.03
13.466,0.02,0.00,0.02,0.02
13.476,0.02,0.02,0.09,0.10
13.486,0.06,0.03,0.10,0.12
13.496,0.09,0.05,0.07,0.13
13.506,0.11,0.09,-0.01,0.14
13.517,0.09,0.11,-0.07,0.16
13.526,0.04,0.08,-0.09,0.12
13.536,0.00,0.01,-0.05,0.05
13.546,-0.03,-0.07,0.04,0.08
13.557,-0.04,-0.14,0.10,0.17
13.566,-0.04,-0.14,0.12,0.20
13.577,-0.03,-0.12,0.08,0.14
13.587,-0.01,-0.08,0.03,0.09
13.597,-0.01,-0.02,0.01,0.02
13.607,-0.01,0.02,0.02,0.03
13.617,-0.03,0.01,0.04,0.05
13.627,-0.04,0.00,0.06,0.07
13.637,-0.03,0.01,0.05,0.06
13.647,-0.02,0.01,0.04,0.04
13.657,-0.00,0.00,0.03,0.03
13.667,-0.01,0.01,0.04,0.05
13.677,-0.01,0.02,0.04,0.04
13.687,0.02,0.03,0.03,0.05
13.697,0.02,0.05,0.01,0.06
13.707,0.03,0.05,-0.03,0.07
13.718,0.02,0.03,-0.02,0.04
13.727,0.01,-0.00,0.00,0.01
13.738,0.00,-0.02,0.03,0.03
13.748,0.02,-0.03,0.05,0.06
13.758,0.03,-0.01,0.07,0.07
13.768,0.02,-0.01,0.04,0.04
13.778,0.01,0.02,0.00,0.02
13.788,0.00,0.01,-0.01,0.01
13.798,0.02,0.00,-0.00,0.02
13.808,0.02,0.00,-0.00,0.02
13.818,0.01,-0.02,0.03,0.03
13.828,0.01,-0.04,0.03,0.05
13.838,0.01,-0.06,0.04,0.07
13.848,-0.00,-0.05,0.06,0.08
13.858,0.00,-0.03,0.07,0.08
13.868,0.02,-0.03,0.04,0.05
13.878,0.03,-0.00,0.03,0.04
13.888,0.01,0.01,0.00,0.02
13.898,0.01,0.01,-0.00,0.02
13.909,0.01,0.03,0.02,0.04
13.919,-0.01,0.02,0.03,0.03
13.929,-0.00,0.01,0.03,0.03
13.939,-0.03,-0.00,0.04,0.05
13.949,-0.01,0.00,0.06,0.06
13.959,-0.00,0.00,0.04,0.04
13.969,0.00,0.01,0.03,0.03
13.979,0.00,0.00,0.02,0.02
13.989,0.01,0.00,0.02,0.02
13.999,0.02,0.01,0.03,0.03
14.009,-0.01,-0.00,0.04,0.04
14.019,-0.01,-0.00,0.05,0.05
14.029,-0.01,-0.00,0.04,0.04
14.039,0.01,-0.02,0.06,0.07
14.049,0.02,-0.02,0.07,0.08
14.060,0.03,-0.02,0.05,0.06
14.070,0.03,-0.03,0.03,0.06
14.080,0.03,-0.04,0.00,0.05
14.090,0.02,-0.03,0.01,0.03
14.100,0.01,-0.03,0.02,0.03
14.110,-0.00,-0.02,0.01,0.02
14.120,-0.00,-0.01,0.02,0.03
14.130,0.00,-0.00,0.05,0.05
14.140,-0.00,-0.00,0.05,0.05
14.150,0.00,-0.00,0.06,0.06
14.160,0.01,0.01,0.03,0.04
14.170,0.01,0.03,-0.01,0.03
14.180,0.01,0.02,-0.04,0.05
14.190,0.00,0.01,-0.05,0.05
14.200,-0.00,0.01,-0.02,0.02
14.210,0.04,-0.00,0.01,0.04
14.220,0.03,0.00,0.04,0.05
14.230,0.04,0.02,0.07,0.09
14.240,0.05,0.05,0.08,0.11
14.250,0.05,0.08,0.04,0.10
14.261,0.04,0.10,-0.05,0.12
14.271,0.02,0.09,-0.10,0.14
14.281,-0.03,0.04,-0.07,0.08
14.291,-0.05,-0.02,-0.01,0.05
14.301,-0.05,-0.08,0.07,0.12
14.311,-0.04,-0.12,0.13,0.18
14.321,-0.04,-0.14,0.12,0.19
14.331,-0.03,-0.11,0.10,0.15
14.341,-0.02,-0.06,0.05,0.08
14.351,-0.01,-0.03,0.02,0.04
14.361,-0.01,0.00,0.02,0.02
14.371,-0.00,0.02,0.01,0.02
14.381,0.01,0.02,0.03,0.04
14.391,0.02,0.01,0.03,0.04
14.401,0.04,0.01,0.05,0.06
14.411,0.03,0.01,0.05,0.06
14.422,0.02,0.01,0.05,0.05
14.431,0.03,0.04,0.04,0.06
14.442,0.02,0.05,0.02,0.06
14.452,0.04,0.05,-0.02,0.07
14.462,0.05,0.04,-0.06,0.09
14.472,0.04,0.04,-0.05,0.07
14.482,0.02,0.01,-0.02,0.03
14.492,0.02,-0.01,0.02,0.03
14.502,0.00,-0.03,0.05,0.06
14.512,-0.01,-0.00,0.03,0.03
14.522,-0.01,0.01,0.03,0.03
14.532,-0.01,0.01,-0.00,0.01
14.542,-0.01,0.01,-0.01,0.01
14.552,0.00,0.00,-0.01,0.01
14.562,-0.01,-0.01,0.02,0.02
14.572,-0.01,-0.04,0.04,0.06
14.582,-0.00,-0.05,0.04,0.06
14.592,0.01,-0.06,0.08,0.09
14.602,-0.01,-0.06,0.09,0.11
14.612,-0.01,-0.04,0.07,0.08
14.623,0.01,-0.02,0.06,0.06
14.633,0.01,-0.02,0.02,0.03
14.643,-0.00,0.01,0.00,0.01
14.653,0.00,0.04,-0.00,0.04
14.663,0.02,0.03,-0.01,0.03
14.673,0.01,0.03,0.02,0.04
14.683,0.01,0.01,0.03,0.03
14.693,0.00,0.00,0.04,0.04
14.703,0.01,0.02,0.04,0.05
14.713,0.00,0.02,0.02,0.03
14.723,0.02,0.01,0.04,0.04
14.733,0.01,-0.00,0.02,0.02
14.743,-0.00,-0.00,0.02,0.02
14.753,-0.00,-0.00,0.03,0.03
14.763,0.01,-0.01,0.02,0.02
14.773,-0.01,0.00,0.01,0.01
14.783,0.01,0.01,0.02,0.02
14.793,0.01,-0.01,0.03,0.03
14.804,0.00,-0.02,0.05,0.05
14.814,-0.01,-0.04,0.06,0.08
14.824,-0.00,-0.04,0.07,0.08
14.834,0.00,-0.03,0.08,0.09
14.844,0.02,-0.02,0.08,0.09
14.854,0.01,-0.01,0.05,0.05
14.864,0.01,-0.02,0.04,0.05
14.874,0.02,-0.02,0.01,0.03
14.884,0.01,-0.02,0.01,0.03
14.894,0.00,-0.02,0.00,0.02
14.904,-0.00,-0.00,0.01,0.01
14.914,-0.01,0.01,0.02,0.02
14.924,-0.01,0.02,0.03,0.04
14.934,-0.01,0.03,0.06,0.07
14.944,0.01,0.03,0.04,0.05
14.954,-0.00,0.02,-0.00,0.02
14.964,-0.01,0.02,-0.03,0.04
14.974,-0.01,0.00,-0.03,0.03
14.985,-0.00,-0.01,-0.01,0.01
14.995,0.02,-0.02,0.01,0.03
15.005,0.02,-0.00,0.04,0.04
15.015,0.03,0.01,0.06,0.07
15.025,0.05,0.05,0.07,0.10
15.035,0.06,0.09,0.02,0.11
15.045,0.07,0.11,-0.08,0.15
15.055,0.02,0.07,-0.09,0.12
15.065,-0.02,0.04,-0.06,0.08
15.075,-0.04,-0.02,0.01,0.05
15.085,-0.04,-0.10,0.09,0.15
15.095,-0.03,-0.15,0.14,0.21
15.105,-0.02,-0.15,0.13,0.20
15.115,-0.01,-0.12,0.07,0.14
15.125,0.01,-0.04,0.02,0.05
15.135,0.02,0.02,0.00,0.03
15.146,0.01,0.04,0.01,0.04
15.156,0.01,0.04,0.04,0.06
15.166,0.00,0.00,0.04,0.04
15.176,0.01,-0.00,0.03,0.03
15.186,0.01,-0.01,0.05,0.05
15.196,0.01,-0.00,0.05,0.05
15.206,0.01,0.02,0.06,0.06
15.216,0.01,0.03,0.05,0.06
15.226,0.01,0.04,0.02,0.04
15.236,0.03,0.04,-0.01,0.05
15.246,0.04,0.04,-0.00,0.06
15.256,0.03,0.02,0.00,0.04
15.267,0.03,0.00,0.02,0.04
15.276,0.02,-0.03,0.04,0.06
15.287,0.01,-0.03,0.06,0.07
15.296,0.01,-0.00,0.04,0.04
15.306,0.01,0.01,0.02,0.02
15.316,-0.01,0.01,-0.00,0.01
15.327,-0.01,0.01,-0.02,0.03
15.336,-0.00,-0.01,-0.01,0.01
15.347,-0.00,-0.02,-0.01,0.02
15.357,-0.00,-0.04,0.01,0.05
15.367,-0.01,-0.06,0.04,0.08
15.377,0.01,-0.05,0.03,0.06
15.387,0.01,-0.04,0.03,0.05
15.397,0.01,-0.02,0.04,0.04
15.407,0.01,-0.02,0.04,0.04
15.417,0.01,0.00,0.03,0.03
15.427,-0.00,0.01,0.02,0.02
15.437,0.01,0.02,0.02,0.03
15.447,0.01,0.02,0.04,0.05
15.457,-0.01,0.01,0.05,0.05
15.467,-0.01,0.01,0.06,0.06
15.477,-0.01,0.03,0.05,0.06
15.487,0.01,0.02,0.03,0.04
15.497,0.02,0.02,0.02,0.03
15.508,0.02,0.01,0.01,0.03
15.518,0.02,0.01,0.02,0.03
15.528,0.02,0.01,0.03,0.04
15.538,0.02,-0.02,0.01,0.03
15.548,0.03,-0.01,0.03,0.04
15.558,0.01,-0.00,0.05,0.05
15.568,-0.01,-0.02,0.05,0.05
15.578,-0.01,-0.02,0.06,0.07
15.588,-0.01,-0.03,0.05,0.06
15.598,-0.00,-0.04,0.02,0.05
15.608,0.01,-0.04,0.01,0.04
15.618,0.01,-0.03,0.02,0.04
15.628,-0.02,-0.02,0.02,0.04
15.638,-0.03,-0.02,0.03,0.05
15.648,-0.04,-0.02,0.02,0.05
15.658,-0.06,-0.03,0.03,0.07
15.668,-0.04,0.01,0.05,0.07
15.678,-0.04,0.01,0.04,0.06
15.689,-0.01,-0.01,0.02,0.02
15.699,0.01,-0.01,-0.02,0.02
15.709,0.03,-0.02,-0.02,0.05
15.719,0.06,-0.01,-0.03,0.07
15.729,0.07,-0.03,-0.00,0.08
15.739,0.06,-0.02,0.04,0.07
15.749,0.03,-0.02,0.06,0.07
15.759,0.04,0.03,0.08,0.09
15.769,0.05,0.08,0.05,0.10
15.779,0.07,0.10,-0.03,0.13
15.789,0.05,0.13,-0.08,0.16
15.799,0.02,0.09,-0.09,0.13
15.809,-0.01,0.02,-0.06,0.06
15.819,-0.04,-0.04,0.03,0.06
15.829,-0.02,-0.10,0.11,0.15
15.839,-0.01,-0.16,0.10,0.19
15.850,-0.03,-0.14,0.08,0.16
15.860,-0.02,-0.08,0.03,0.09
15.870,-0.02,-0.03,0.00,0.04
15.880,-0.04,-0.02,-0.02,0.05
15.890,-0.03,0.03,0.01,0.04
15.900,-0.03,0.03,0.02,0.05
15.910,-0.02,0.02,0.03,0.04
15.920,-0.01,0.02,0.04,0.05
15.930,0.00,0.01,0.08,0.08
15.940,-0.01,0.01,0.08,0.08
15.950,-0.01,0.02,0.09,0.09
15.960,0.01,0.02,0.08,0.09
15.970,0.01,0.04,0.07,0.08
15.980,0.03,0.03,0.01,0.05
15.990,0.02,0.02,-0.01,0.03
16.000,0.01,0.01,-0.00,0.02
16.010,0.02,-0.01,0.01,0.03
16.020,0.02,-0.04,0.03,0.05
16.031,0.03,-0.05,0.02,0.06
16.040,0.04,-0.03,-0.00,0.05
16.051,0.04,0.00,-0.02,0.05
16.061,0.04,0.03,-0.03,0.06
16.071,0.04,0.02,-0.03,0.05
16.081,0.04,0.01,-0.01,0.04
16.091,0.03,-0.02,0.01,0.04
16.101,0.01,-0.04,0.03,0.05
16.111,0.00,-0.06,0.05,0.08
16.121,0.01,-0.05,0.04,0.07
16.131,0.01,-0.05,0.04,0.06
16.141,0.01,-0.02,0.01,0.03
16.151,0.00,0.01,-0.02,0.02
16.161,0.01,0.04,-0.02,0.05
16.171,0.00,0.04,-0.04,0.06
16.181,0.00,0.03,-0.02,0.04
16.191,-0.00,0.04,0.03,0.05
16.201,-0.02,0.02,0.06,0.07
16.212,-0.03,0.00,0.10,0.10
16.222,-0.03,0.00,0.12,0.13
16.232,-0.01,-0.02,0.12,0.12
16.242,-0.02,-0.01,0.09,0.09
16.252,-0.03,-0.02,0.06,0.06
16.262,-0.03,-0.02,0.02,0.04
16.272,-0.02,-0.02,0.01,0.03
16.282,-0.01,-0.01,0.03,0.03
16.292,0.01,-0.01,0.01,0.02
16.302,0.03,-0.01,0.02,0.04
16.312,0.03,-0.01,0.01,0.03
16.322,0.03,-0.04,0.02,0.05
16.332,0.02,-0.04,0.02,0.05
16.342,0.02,-0.04,0.03,0.06
16.352,-0.00,-0.05,0.03,0.06
16.362,0.01,-0.03,0.05,0.06
16.373,0.02,-0.01,0.07,0.07
16.383,0.01,0.01,0.07,0.07
16.393,0.02,0.02,0.03,0.04
16.403,0.03,0.02,-0.00,0.04
16.413,0.03,-0.01,-0.06,0.06
16.423,0.04,-0.00,-0.07,0.08
16.433,0.04,0.00,-0.04,0.06
16.443,0.04,-0.00,-0.01,0.04
16.453,0.03,0.02,0.03,0.04
16.463,0.02,0.04,0.05,0.07
16.473,0.03,0.08,0.05,0.10
16.483,0.04,0.11,0.00,0.12
16.493,0.02,0.11,-0.05,0.12
16.503,0.02,0.09,-0.05,0.11
16.513,-0.02,0.03,-0.03,0.04
16.523,-0.05,-0.04,0.04,0.07
16.533,-0.04,-0.10,0.13,0.17
16.543,-0.03,-0.16,0.17,0.24
16.553,-0.04,-0.17,0.16,0.24
16.564,-0.03,-0.13,0.10,0.17
16.574,-0.02,-0.07,0.04,0.08
16.584,-0.03,-0.01,0.01,0.03
16.594,-0.04,0.01,0.02,0.05
16.604,-0.03,-0.01,0.03,0.04
16.614,-0.02,-0.01,0.07,0.07
16.624,-0.03,-0.01,0.06,0.07
16.634,-0.02,-0.00,0.05,0.05
16.644,-0.01,0.00,0.05,0.05
16.654,0.01,0.01,0.06,0.06
16.664,0.03,0.04,0.05,0.07
16.674,0.04,0.06,0.02,0.07
16.684,0.06,0.07,-0.00,0.09
16.694,0.06,0.03,-0.03,0.07
16.704,0.04,0.01,-0.02,0.05
16.714,0.03,-0.01,0.01,0.03
16.724,0.02,-0.03,0.02,0.04
16.734,0.02,-0.04,0.04,0.06
16.744,0.02,-0.01,-0.00,0.02
16.755,-0.01,0.03,-0.04,0.05
16.765,0.00,0.06,-0.04,0.07
16.775,-0.02,0.07,-0.08,0.11
16.785,-0.01,0.04,-0.05,0.06
16.795,-0.01,-0.01,0.01,0.01
16.805,-0.02,-0.04,0.04,0.06
16.815,0.01,-0.07,0.08,0.11
16.825,0.02,-0.08,0.10,0.13
16.835,0.03,-0.07,0.11,0.13
16.845,0.02,-0.05,0.07,0.09
16.855,0.02,-0.02,0.04,0.05
16.865,-0.00,-0.01,0.02,0.02
16.875,-0.03,0.01,-0.00,0.03
16.885,-0.04,0.02,-0.02,0.05
16.895,-0.03,0.01,-0.01,0.03
16.905,-0.00,0.02,0.02,0.02
16.916,0.01,0.02,0.07,0.07
16.926,0.01,0.01,0.08,0.08
16.936,0.01,0.00,0.09,0.09
16.946,0.04,-0.01,0.10,0.11
16.956,0.04,-0.02,0.05,0.07
16.966,0.04,-0.02,0.04,0.06
16.976,0.03,0.00,0.03,0.04
16.986,0.00,-0.01,-0.01,0.01
16.996,-0.01,0.01,-0.04,0.04
17.006,-0.03,-0.00,-0.01,0.03
17.016,-0.01,0.01,0.00,0.02
17.026,-0.03,0.00,0.04,0.05
17.036,-0.03,-0.03,0.05,0.07
17.046,-0.02,-0.04,0.06,0.08
17.056,-0.02,-0.02,0.10,0.10
17.067,-0.02,-0.02,0.06,0.06
17.076,-0.00,-0.02,0.02,0.03
17.086,0.02,-0.02,-0.01,0.03
17.097,0.02,-0.02,-0.01,0.03
17.107,0.03,-0.01,-0.01,0.04
17.117,0.03,-0.02,0.01,0.04
17.127,0.03,-0.01,0.01,0.03
17.137,0.04,0.01,0.03,0.05
17.147,0.03,0.04,0.07,0.09
17.157,0.06,0.06,0.05,0.10
17.167,0.09,0.08,0.01,0.12
17.177,0.07,0.07,-0.02,0.11
17.187,0.03,0.05,-0.03,0.07
17.197,0.01,-0.01,-0.00,0.02
17.207,-0.01,-0.05,0.04,0.06
17.217,-0.03,-0.10,0.06,0.12
17.227,-0.06,-0.12,0.07,0.15
17.237,-0.04,-0.10,0.05,0.12
17.247,-0.04,-0.07,0.03,0.08
17.257,-0.03,-0.02,0.03,0.05
17.267,-0.04,0.01,0.04,0.06
17.278,-0.04,0.02,0.07,0.09
17.288,-0.04,0.03,0.07,0.09
17.298,-0.02,0.01,0.05,0.06
17.308,-0.02,0.00,0.05,0.06
17.318,-0.01,-0.03,0.04,0.05
17.328,-0.01,-0.03,0.04,0.05
17.338,0.01,-0.00,0.06,0.06
17.348,0.02,0.02,0.02,0.04
17.358,0.03,0.05,-0.02,0.06
17.368,0.04,0.04,-0.04,0.07
17.378,0.03,0.03,-0.05,0.07
17.388,0.02,0.02,-0.02,0.04
17.398,0.04,-0.01,0.02,0.04
17.408,0.03,-0.03,0.04,0.06
17.418,0.03,-0.03,0.04,0.06
17.428,0.04,-0.03,0.01,0.05
17.439,0.03,0.00,-0.01,0.04
17.448,0.03,0.03,-0.01,0.04
17.459,0.02,0.04,-0.03,0.05
17.469,0.02,0.03,0.00,0.04
17.479,0.00,-0.02,0.03,0.03
17.489,0.00,-0.04,0.04,0.06
17.499,0.01,-0.06,0.05,0.08
17.509,0.01,-0.06,0.05,0.07
17.519,-0.01,-0.07,0.03,0.08
17.529,-0.02,-0.06,0.01,0.06
17.539,-0.01,-0.01,0.00,0.01
17.549,0.01,0.02,0.01,0.02
17.559,0.01,0.03,0.02,0.04
17.569,0.02,0.04,0.03,0.06
17.579,0.00,0.03,0.08,0.08
17.589,-0.02,0.01,0.11,0.12
17.600,-0.02,-0.01,0.12,0.12
17.609,-0.01,-0.03,0.12,0.13
17.620,-0.02,-0.04,0.11,0.11
17.629,-0.01,-0.05,0.06,0.08
17.640,-0.00,-0.03,0.03,0.05
17.650,-0.02,-0.03,-0.03,0.05
17.660,-0.04,-0.00,-0.04,0.06
17.670,-0.04,0.02,-0.04,0.05
17.680,-0.03,0.02,-0.02,0.04
17.690,-0.04,0.02,-0.00,0.05
17.700,-0.02,0.02,0.03,0.05
17.710,0.00,-0.01,0.07,0.07
17.720,-0.02,-0.02,0.05,0.06
17.730,-0.01,-0.04,0.02,0.04
17.740,-0.01,-0.03,-0.01,0.04
17.750,0.00,-0.02,-0.02,0.03
17.760,0.01,0.01,-0.02,0.02
17.770,0.00,0.01,-0.00,0.02
17.780,0.03,0.01,0.04,0.06
17.790,0.03,0.01,0.07,0.08
17.800,0.06,0.03,0.11,0.13
17.811,0.07,0.04,0.10,0.12
17.821,0.10,0.06,0.01,0.12
17.831,0.08,0.05,-0.04,0.10
17.841,0.03,0.04,-0.07,0.09
17.851,-0.02,0.00,-0.05,0.05
17.861,-0.05,-0.05,0.01,0.07
17.871,-0.04,-0.10,0.06,0.12
17.881,-0.03,-0.14,0.08,0.16
17.891,-0.02,-0.11,0.09,0.14
17.901,-0.01,-0.08,0.05,0.10
17.911,-0.01,-0.04,0.03,0.05
17.921,-0.02,0.00,0.04,0.05
17.931,-0.05,-0.01,0.06,0.08
17.941,-0.04,-0.01,0.08,0.09
17.951,-0.03,-0.00,0.07,0.08
17.961,-0.02,-0.00,0.06,0.07
17.971,-0.00,0.01,0.06,0.07
17.982,0.01,0.03,0.05,0.06
17.991,0.01,0.03,0.03,0.04
18.002,0.02,0.04,0.00,0.05
18.012,0.03,0.04,-0.00,0.05
18.022,0.05,0.03,-0.04,0.06
18.032,0.02,0.01,-0.03,0.03
18.042,0.00,-0.00,-0.01,0.01
18.052,0.01,-0.01,0.02,0.03
18.062,0.01,-0.04,0.03,0.05
18.072,0.02,-0.03,0.05,0.06
18.082,0.02,0.01,0.03,0.04
18.092,0.02,0.03,0.02,0.04
18.102,0.00,0.04,-0.01,0.04
18.112,0.01,0.02,-0.01,0.02
18.122,-0.01,0.01,0.02,0.02
18.132,-0.02,-0.02,0.02,0.03
18.142,-0.01,-0.06,0.05,0.08
18.152,-0.01,-0.07,0.05,0.08
18.163,-0.01,-0.07,0.07,0.10
18.172,-0.00,-0.07,0.09,0.11
18.183,0.01,-0.04,0.07,0.08
18.193,0.01,-0.02,0.06,0.06
18.203,-0.00,-0.01,0.04,0.04
18.213,-0.00,0.01,0.03,0.04
18.223,-0.00,0.01,0.01,0.02
18.233,0.01,0.02,0.02,0.02
18.243,-0.01,0.00,0.02,0.02
18.253,-0.03,-0.01,0.04,0.05
18.263,-0.03,0.01,0.03,0.04
18.273,-0.01,0.00,0.02,0.02
18.283,-0.00,-0.01,0.02,0.02
18.293,0.02,0.01,0.02,0.03
18.303,0.01,0.01,0.01,0.02
18.313,0.01,0.01,-0.01,0.02
18.324,-0.00,0.00,-0.01,0.01
18.333,-0.00,-0.00,-0.00,0.00
18.344,-0.02,-0.01,0.00,0.02
18.354,-0.01,-0.01,0.02,0.02
18.364,0.00,-0.01,0.06,0.06
18.374,-0.00,-0.01,0.10,0.10
18.384,0.00,-0.02,0.14,0.14
18.394,-0.00,-0.03,0.15,0.15
18.404,-0.01,-0.03,0.14,0.15
18.414,0.00,-0.04,0.11,0.12
18.424,0.03,-0.04,0.08,0.09
18.434,0.04,-0.03,0.09,0.10
18.444,0.06,-0.04,0.11,0.13
18.454,0.08,-0.04,0.09,0.13
18.464,0.13,-0.01,0.12,0.18
18.474,0.18,0.05,0.11,0.22
18.484,0.19,0.13,0.01,0.23
18.494,0.18,0.19,-0.12,0.28
18.504,0.10,0.17,-0.18,0.27
18.514,-0.06,0.13,-0.17,0.22
18.524,-0.20,0.05,-0.09,0.23
18.535,-0.27,-0.01,-0.01,0.27
18.545,-0.27,-0.08,0.04,0.28
18.555,-0.20,-0.07,0.13,0.25
18.565,-0.04,-0.08,0.21,0.23
18.575,0.13,-0.06,0.21,0.25
18.585,0.22,-0.01,0.16,0.27
18.595,0.25,0.04,0.08,0.26
18.605,0.23,0.09,-0.02,0.25
18.615,0.18,0.10,-0.12,0.23
18.625,0.11,0.06,-0.19,0.23
18.635,0.03,-0.00,-0.21,0.21
18.645,-0.06,-0.09,-0.12,0.16
18.655,-0.12,-0.16,0.00,0.20
18.665,-0.11,-0.20,0.01,0.23
18.676,-0.10,-0.22,-0.03,0.24
18.686,-0.08,-0.21,-0.03,0.23
18.696,-0.06,-0.16,-0.00,0.17
18.706,-0.06,-0.11,0.07,0.14
18.716,-0.09,-0.03,0.12,0.16
18.726,-0.11,0.07,0.14,0.19
18.736,-0.14,0.11,0.09,0.20
18.746,-0.12,0.13,0.02,0.18
18.756,-0.08,0.13,-0.04,0.16
18.766,-0.05,0.09,-0.07,0.13
18.776,-0.03,0.07,-0.05,0.09
18.786,-0.02,0.05,-0.03,0.06
18.796,-0.03,0.03,0.04,0.06
18.806,-0.03,0.01,0.10,0.10
18.816,-0.03,-0.01,0.09,0.09
18.826,0.01,-0.04,0.05,0.06
18.836,0.07,-0.04,-0.01,0.08
18.846,0.09,-0.02,-0.07,0.11
18.856,0.09,0.03,-0.09,0.13
18.866,0.10,0.05,-0.09,0.14
18.877,0.13,0.06,-0.04,0.15
18.887,0.10,0.03,0.03,0.11
18.898,0.06,-0.00,0.07,0.09
18.907,0.01,-0.04,0.08,0.09
18.917,-0.05,-0.06,0.10,0.13
18.927,-0.06,-0.04,0.08,0.11
18.937,-0.06,-0.04,0.09,0.12
18.947,-0.06,-0.01,0.09,0.11
18.957,-0.02,-0.02,0.08,0.08
18.967,0.03,-0.07,0.05,0.09
18.977,0.03,-0.10,-0.00,0.10
18.987,0.04,-0.10,-0.03,0.11
18.997,0.05,-0.07,-0.02,0.09
19.007,0.02,-0.05,0.00,0.06
19.017,0.02,-0.05,0.04,0.07
19.027,0.01,-0.03,0.08,0.09
19.037,-0.03,-0.02,0.09,0.10
19.048,-0.05,-0.01,0.04,0.06
19.058,-0.06,0.01,0.04,0.07
19.067,-0.03,0.02,0.02,0.04
19.078,0.04,0.01,0.02,0.04
19.088,0.10,-0.01,0.01,0.10
19.098,0.11,-0.01,-0.03,0.11
19.108,0.09,0.03,-0.02,0.10
19.118,0.05,0.06,-0.01,0.07
19.128,0.05,0.10,0.01,0.12
19.138,0.04,0.14,-0.02,0.14
19.148,0.04,0.12,-0.03,0.12
19.158,0.03,0.09,-0.02,0.10
19.168,-0.01,0.08,-0.03,0.08
19.178,-0.01,0.05,-0.03,0.06
19.188,-0.04,0.01,-0.03,0.05
19.198,-0.06,-0.04,-0.02,0.08
19.208,-0.09,-0.07,0.04,0.12
19.219,-0.08,-0.05,0.10,0.14
19.229,-0.06,-0.05,0.12,0.15
19.239,-0.04,-0.06,0.11,0.13
19.249,-0.04,-0.07,0.08,0.11
19.259,-0.05,-0.09,0.06,0.12
19.269,-0.07,-0.08,0.08,0.13
19.279,-0.09,-0.06,0.10,0.15
19.289,-0.07,0.02,0.12,0.14
19.299,-0.03,0.09,0.14,0.17
19.309,0.05,0.13,0.13,0.19
19.319,0.07,0.10,0.06,0.13
19.329,0.07,0.05,-0.07,0.11
19.339,0.09,-0.04,-0.16,0.18
19.349,0.09,-0.07,-0.18,0.22
19.359,0.09,-0.05,-0.13,0.17
19.369,0.12,-0.03,-0.02,0.13
19.379,0.15,-0.02,0.04,0.15
19.389,0.14,-0.00,0.09,0.17
19.400,0.13,-0.01,0.11,0.17
19.410,0.10,-0.03,0.10,0.15
19.420,0.10,-0.04,0.09,0.14
19.430,0.10,-0.02,0.09,0.14
19.440,0.09,-0.02,0.10,0.13
19.450,0.11,0.02,0.06,0.13
19.460,0.09,0.01,0.02,0.09
19.470,0.08,-0.06,-0.05,0.11
19.480,0.05,-0.10,-0.07,0.14
19.490,0.01,-0.10,-0.06,0.12
19.500,0.05,-0.05,-0.02,0.07
19.510,-0.01,-0.03,0.02,0.04
19.520,-0.06,-0.04,0.02,0.08
19.530,-0.08,-0.02,0.06,0.10
19.540,-0.15,-0.05,0.14,0.21
19.550,-0.21,-0.05,0.17,0.27
19.560,-0.21,-0.03,0.12,0.24
19.570,-0.20,-0.00,0.04,0.20
19.580,-0.21,0.02,-0.04,0.22
19.591,-0.22,0.08,-0.06,0.24
19.601,-0.21,0.11,-0.05,0.24
19.611,-0.20,0.11,-0.03,0.24
19.621,-0.16,0.12,0.04,0.20
19.631,-0.16,0.07,0.11,0.21
19.641,-0.21,-0.02,0.15,0.26
19.651,-0.23,-0.09,0.14,0.28
19.661,-0.15,-0.14,0.11,0.23
19.671,-0.06,-0.14,0.06,0.16
19.681,-0.01,-0.07,0.02,0.08
19.691,0.05,-0.01,-0.02,0.05
19.701,0.11,0.05,-0.06,0.13
19.711,0.16,0.08,-0.10,0.20
19.721,0.20,0.07,-0.12,0.24
19.731,0.20,0.04,-0.09,0.23
19.741,0.16,-0.02,-0.02,0.16
19.751,0.07,-0.07,-0.00,0.10
19.762,-0.00,-0.09,0.03,0.10
19.772,-0.00,-0.04,0.08,0.09
19.782,0.02,0.02,0.13,0.13
19.792,0.06,0.04,0.12,0.14
19.802,0.09,0.04,0.10,0.14
19.812,0.12,0.02,0.05,0.13
19.822,0.19,0.00,-0.02,0.19
19.832,0.23,-0.00,-0.07,0.24
19.842,0.21,-0.02,-0.08,0.23
19.852,0.20,-0.02,-0.06,0.21
19.862,0.15,-0.01,-0.03,0.15
19.872,0.06,-0.03,0.03,0.07
19.882,-0.04,-0.07,0.06,0.10
19.892,-0.04,-0.11,0.10,0.15
19.902,0.00,-0.07,0.12,0.14
19.913,0.04,0.00,0.11,0.11
19.923,0.04,0.06,0.08,0.11
19.933,0.04,0.07,0.03,0.09
19.943,0.03,0.09,-0.03,0.10
19.953,0.03,0.14,-0.04,0.15
19.963,-0.01,0.14,-0.07,0.15
19.973,-0.06,0.06,-0.12,0.15
19.983,-0.12,-0.05,-0.13,0.18
19.993,-0.13,-0.08,-0.06,0.16
20.003,-0.10,-0.03,0.01,0.10
20.013,-0.05,0.08,0.06,0.11
20.023,0.04,0.16,0.06,0.18
20.033,0.11,0.16,0.01,0.19
20.043,0.14,0.15,-0.02,0.20
20.053,0.07,0.08,-0.04,0.11
20.063,-0.07,-0.05,-0.03,0.09
20.073,-0.10,-0.13,0.01,0.16
20.083,-0.03,-0.13,0.09,0.16
20.093,0.05,-0.08,0.14,0.17
20.104,0.07,-0.03,0.14,0.16
20.114,0.04,0.01,0.06,0.07
20.124,0.04,0.01,-0.00,0.04
20.134,0.05,-0.01,-0.02,0.05
20.144,0.03,-0.07,-0.01,0.08
20.154,0.03,-0.09,0.04,0.11
20.164,0.04,-0.08,0.09,0.13
20.174,0.05,-0.07,0.14,0.17
20.184,0.03,-0.06,0.16,0.17
20.194,-0.01,-0.06,0.14,0.15
20.204,-0.04,-0.06,0.12,0.14
20.214,0.01,-0.04,0.15,0.16
20.224,0.03,-0.03,0.13,0.13
20.234,-0.00,-0.04,0.05,0.07
20.244,-0.02,-0.05,-0.01,0.05
20.254,-0.03,-0.04,-0.03,0.06
20.264,-0.03,-0.04,-0.04,0.07
20.274,0.01,-0.03,0.00,0.03
20.284,0.04,-0.00,0.05,0.06
20.295,0.01,-0.01,0.06,0.07
20.305,-0.03,-0.02,0.05,0.06
20.315,0.00,0.03,0.07,0.07
20.325,0.04,0.08,-0.00,0.09
20.335,0.00,0.07,0.01,0.08
20.345,-0.02,0.06,0.04,0.07
20.355,-0.04,0.01,0.06,0.07
20.365,-0.06,-0.04,0.05,0.09
20.375,-0.04,-0.05,0.04,0.08
20.385,-0.03,-0.07,0.04,0.08
20.395,-0.01,-0.04,0.06,0.07
20.405,-0.01,-0.01,0.04,0.04
20.415,-0.03,0.02,0.02,0.04
20.425,-0.02,0.05,-0.05,0.08
20.435,0.06,-0.00,0.18,0.19
20.445,0.06,-0.12,0.34,0.36
20.455,-0.02,-0.08,0.12,0.15
20.465,0.09,0.14,0.09,0.18
20.476,0.14,0.26,-0.12,0.32
20.486,-0.02,0.19,-0.38,0.42
20.496,-0.22,0.04,-0.52,0.57
20.506,-0.20,-0.04,-0.46,0.50
20.516,-0.08,-0.07,-0.18,0.21
20.526,-0.02,-0.14,0.19,0.23
