time,ax,ay,az,atotal
0.000,0.20,-0.07,0.38,0.43
0.010,0.19,-0.20,0.77,0.81
0.020,0.12,-0.25,0.95,0.99
0.030,0.07,-0.22,0.76,0.79
0.040,0.06,-0.13,0.26,0.30
0.050,0.00,-0.02,-0.19,0.19
0.060,-0.03,0.05,-0.47,0.47
0.070,0.02,0.06,-0.49,0.50
0.080,0.11,0.04,-0.27,0.29
0.090,0.13,-0.01,0.01,0.14
0.100,0.13,-0.07,0.18,0.23
0.110,0.07,-0.10,0.24,0.27
0.120,0.05,-0.08,0.16,0.19
0.131,0.03,-0.06,0.03,0.07
0.141,0.03,-0.04,-0.06,0.08
0.151,0.04,-0.03,-0.10,0.11
0.161,0.06,-0.03,-0.07,0.09
0.171,0.09,-0.04,0.00,0.10
0.181,0.09,-0.06,0.03,0.11
0.191,0.08,-0.04,0.05,0.11
0.201,0.06,-0.03,0.03,0.08
0.211,0.05,-0.02,0.01,0.06
0.221,0.04,-0.02,-0.01,0.04
0.231,0.06,-0.03,-0.02,0.07
0.241,0.06,-0.04,0.00,0.07
0.251,0.06,-0.05,0.02,0.08
0.261,0.09,-0.06,0.03,0.11
0.271,0.07,-0.04,0.02,0.09
0.281,0.06,-0.03,0.02,0.07
0.291,0.05,-0.03,-0.01,0.06
0.302,0.04,-0.04,-0.02,0.06
0.312,0.02,-0.03,-0.00,0.04
0.322,0.02,-0.02,0.03,0.04
0.332,0.01,-0.02,0.06,0.07
0.342,0.04,-0.06,0.02,0.07
0.352,0.07,-0.08,-0.02,0.11
0.362,0.09,-0.08,-0.03,0.12
0.372,0.07,-0.06,-0.03,0.10
0.382,0.03,-0.04,-0.02,0.05
0.392,0.03,-0.01,0.00,0.03
0.402,0.04,0.04,0.04,0.07
0.412,0.07,0.08,0.04,0.11
0.422,0.12,0.08,-0.05,0.15
0.432,0.13,0.08,-0.09,0.18
0.442,0.10,0.04,-0.09,0.14
0.452,0.04,-0.00,-0.06,0.07
0.463,0.01,-0.03,0.04,0.05
0.472,0.02,-0.08,0.07,0.11
0.483,0.02,-0.15,0.09,0.18
0.493,0.04,-0.15,0.10,0.18
0.503,0.02,-0.15,0.05,0.16
0.513,0.04,-0.09,0.02,0.10
0.523,0.04,-0.06,0.00,0.08
0.533,0.02,-0.04,-0.02,0.05
0.543,0.02,-0.03,0.00,0.03
0.553,0.02,-0.03,0.04,0.05
0.563,0.05,-0.05,0.05,0.08
0.573,0.07,-0.04,0.03,0.08
0.583,0.09,-0.02,0.02,0.10
0.593,0.08,-0.00,-0.02,0.09
0.603,0.06,0.00,-0.04,0.07
0.613,0.05,0.01,-0.03,0.06
0.623,0.02,0.03,-0.04,0.06
0.633,0.01,0.02,-0.03,0.04
0.644,0.03,0.02,-0.01,0.04
0.653,0.07,0.01,0.03,0.07
0.664,0.09,-0.03,0.03,0.10
0.674,0.08,-0.01,0.03,0.09
0.684,0.08,-0.02,0.03,0.08
0.694,0.06,-0.02,0.01,0.07
0.704,0.03,-0.03,0.01,0.04
0.714,0.01,-0.04,-0.00,0.04
0.724,0.02,-0.06,-0.03,0.06
0.734,0.05,-0.06,-0.03,0.09
0.744,0.08,-0.07,-0.02,0.10
0.754,0.08,-0.07,0.01,0.11
0.764,0.06,-0.06,0.03,0.09
0.774,0.03,-0.07,0.04,0.09
0.784,0.04,-0.06,0.06,0.09
0.794,0.04,-0.06,0.02,0.08
0.804,0.05,-0.05,0.01,0.07
0.815,0.05,-0.02,0.02,0.05
0.825,0.04,0.00,0.03,0.05
0.835,0.05,0.01,0.03,0.06
0.845,0.05,-0.00,-0.00,0.05
0.855,0.05,-0.00,0.00,0.05
0.865,0.03,-0.00,0.00,0.03
0.875,0.02,-0.02,0.01,0.03
0.885,0.02,-0.01,-0.01,0.03
0.895,0.03,-0.00,-0.01,0.04
0.905,0.05,-0.01,-0.02,0.06
0.915,0.06,-0.02,-0.02,0.07
0.925,0.05,-0.01,-0.00,0.05
0.935,0.03,-0.03,0.03,0.05
0.945,0.02,-0.05,0.03,0.06
0.955,0.01,-0.06,0.04,0.07
0.965,0.03,-0.05,0.04,0.07
0.975,0.05,-0.03,0.03,0.07
0.985,0.05,-0.03,0.03,0.07
0.996,0.06,-0.02,-0.00,0.06
1.006,0.05,-0.02,-0.02,0.06
1.016,0.04,-0.02,-0.02,0.05
1.026,0.02,-0.03,-0.01,0.04
1.036,0.01,-0.02,-0.01,0.03
1.046,0.01,-0.01,0.03,0.03
1.056,0.02,0.00,0.04,0.04
1.066,0.04,-0.01,0.02,0.05
1.076,0.05,-0.02,0.03,0.07
1.086,0.06,-0.02,0.03,0.07
1.096,0.07,-0.02,0.02,0.08
1.106,0.05,-0.03,0.01,0.06
1.116,0.02,-0.01,0.01,0.03
1.126,-0.00,0.00,0.00,0.01
1.136,-0.02,-0.03,0.01,0.04
1.146,-0.01,-0.03,0.00,0.03
1.156,-0.01,-0.02,0.03,0.04
1.167,0.02,-0.03,0.03,0.05
1.176,0.03,-0.04,-0.01,0.06
1.187,0.04,-0.04,-0.03,0.06
1.197,0.05,-0.03,-0.04,0.08
1.207,0.03,-0.04,-0.03,0.05
1.217,0.02,-0.02,0.02,0.04
1.227,0.03,-0.00,0.06,0.07
1.237,0.06,0.05,0.08,0.11
1.247,0.09,0.07,0.02,0.12
1.257,0.10,0.09,-0.04,0.14
1.267,0.08,0.09,-0.10,0.15
1.277,0.02,0.06,-0.10,0.11
1.287,0.00,-0.00,-0.02,0.02
1.297,-0.01,-0.06,0.05,0.08
1.307,-0.00,-0.12,0.09,0.15
1.317,0.02,-0.16,0.10,0.19
1.327,0.02,-0.14,0.07,0.16
1.337,0.02,-0.07,0.04,0.08
1.347,0.02,-0.02,0.02,0.03
1.357,0.02,0.00,0.01,0.02
1.368,0.02,-0.01,0.01,0.02
1.378,0.02,-0.00,0.05,0.05
1.388,0.06,-0.01,0.04,0.07
1.398,0.06,-0.01,0.04,0.07
1.408,0.04,0.00,0.02,0.05
1.418,0.02,0.03,-0.00,0.03
1.428,-0.01,0.02,-0.02,0.03
1.438,0.01,0.02,-0.06,0.06
1.448,0.04,0.02,-0.05,0.07
1.458,0.05,-0.00,-0.02,0.05
1.468,0.05,0.01,0.01,0.06
1.478,0.06,0.00,0.04,0.07
1.488,0.06,-0.01,0.07,0.09
1.498,0.05,-0.00,0.06,0.08
1.508,0.02,-0.00,0.04,0.05
1.519,0.03,-0.00,0.01,0.03
1.529,0.03,-0.01,-0.01,0.03
1.539,0.02,-0.01,-0.00,0.03
1.549,0.02,-0.03,-0.02,0.04
1.559,0.03,-0.05,0.01,0.06
1.569,0.01,-0.06,0.02,0.07
1.579,0.02,-0.06,0.03,0.07
1.589,0.03,-0.04,0.03,0.06
1.599,0.02,-0.04,0.02,0.05
1.609,0.03,-0.03,0.02,0.04
1.619,0.03,-0.01,0.01,0.03
1.629,0.04,0.03,0.02,0.05
1.639,0.05,0.01,0.01,0.05
1.649,0.04,0.00,0.01,0.04
1.659,0.03,0.00,0.04,0.05
1.669,0.03,0.00,0.04,0.05
1.679,0.01,-0.00,0.01,0.02
1.689,-0.00,0.01,-0.01,0.02
1.699,0.01,0.04,-0.03,0.05
1.710,0.00,0.02,-0.03,0.03
1.720,0.00,-0.00,-0.03,0.03
1.730,0.02,-0.02,-0.01,0.03
1.740,0.02,-0.03,0.03,0.05
1.750,0.02,-0.03,0.04,0.05
1.760,0.03,-0.02,0.03,0.05
1.770,0.04,-0.01,0.02,0.05
1.780,0.04,-0.01,0.02,0.05
1.790,0.05,-0.01,0.02,0.05
1.800,0.02,-0.02,0.02,0.03
1.810,0.02,-0.01,0.00,0.02
1.820,0.01,-0.02,0.01,0.03
1.830,0.00,-0.01,0.00,0.01
1.840,0.04,-0.00,0.01,0.04
1.851,0.04,-0.01,0.02,0.04
1.860,0.05,-0.02,0.04,0.07
1.871,0.06,-0.00,0.04,0.07
1.880,0.05,-0.01,0.03,0.06
1.891,0.05,0.01,0.03,0.06
1.901,0.01,-0.01,0.02,0.03
1.911,0.01,-0.01,0.01,0.02
1.921,0.00,-0.01,0.01,0.01
1.931,-0.00,-0.01,0.01,0.02
1.941,0.01,-0.01,0.03,0.03
1.951,0.03,-0.02,0.03,0.05
1.961,0.01,-0.02,0.07,0.07
1.971,-0.00,-0.01,0.06,0.06
1.981,0.00,-0.01,0.04,0.04
1.991,0.02,-0.03,0.00,0.03
2.001,0.01,-0.02,-0.03,0.04
2.011,0.01,-0.04,-0.04,0.05
2.021,-0.00,-0.01,-0.04,0.05
2.031,0.01,-0.01,-0.01,0.01
2.041,0.03,0.04,0.03,0.06
2.051,0.06,0.09,0.07,0.13
2.062,0.07,0.10,0.04,0.13
2.072,0.07,0.07,-0.01,0.10
2.082,0.06,0.05,-0.05,0.10
2.092,0.01,0.01,-0.04,0.04
2.102,-0.02,-0.02,0.01,0.03
2.112,-0.03,-0.07,0.05,0.09
2.122,-0.02,-0.10,0.07,0.12
2.132,0.02,-0.12,0.06,0.13
2.142,0.03,-0.11,0.05,0.12
2.152,0.02,-0.07,0.02,0.08
2.162,-0.01,-0.03,0.02,0.04
2.172,-0.02,0.00,0.00,0.02
2.182,-0.00,0.01,-0.00,0.01
2.192,0.00,0.01,0.03,0.04
2.202,0.03,0.02,0.05,0.06
2.212,0.03,0.01,0.05,0.06
2.222,0.02,0.01,0.06,0.06
2.233,0.02,-0.00,0.03,0.03
2.242,0.01,0.03,-0.00,0.03
2.253,0.02,0.03,-0.04,0.05
2.263,0.00,0.05,-0.06,0.08
2.273,0.00,0.06,-0.07,0.09
2.283,0.03,0.04,-0.02,0.05
2.293,0.03,0.01,0.01,0.03
2.303,0.03,-0.01,0.06,0.07
2.313,0.03,-0.03,0.08,0.09
2.323,0.02,-0.03,0.05,0.06
2.333,0.01,-0.01,0.03,0.03
2.343,0.01,-0.00,0.01,0.02
2.353,0.01,0.01,-0.01,0.02
2.363,0.01,-0.00,-0.01,0.01
2.373,0.02,-0.02,-0.01,0.03
2.383,0.03,-0.05,0.02,0.06
2.393,0.03,-0.07,0.01,0.07
2.403,0.02,-0.06,0.01,0.06
2.414,0.02,-0.01,0.04,0.05
2.424,0.02,-0.02,0.04,0.04
2.434,0.01,-0.00,0.03,0.04
2.444,0.02,-0.01,0.02,0.03
2.454,0.03,-0.01,0.01,0.03
2.464,0.03,0.01,0.02,0.04
2.474,0.03,0.02,0.00,0.04
2.484,0.05,0.03,0.00,0.06
2.494,0.02,0.02,0.02,0.04
2.504,0.01,0.00,0.02,0.03
2.514,-0.01,-0.01,0.03,0.03
2.524,-0.02,-0.00,0.03,0.04
2.534,-0.01,0.00,0.02,0.02
2.544,0.00,-0.00,-0.00,0.00
2.554,0.01,0.00,-0.01,0.02
2.564,0.01,-0.02,-0.01,0.02
2.574,0.02,-0.04,-0.00,0.04
2.585,0.03,-0.03,0.04,0.05
2.595,0.01,-0.03,0.04,0.05
2.605,0.00,-0.03,0.04,0.05
2.615,-0.02,-0.01,0.03,0.04
2.625,-0.01,-0.03,-0.00,0.03
2.635,0.01,-0.03,0.01,0.03
2.645,0.03,-0.02,0.01,0.04
2.655,0.03,-0.02,0.03,0.05
2.665,0.03,-0.01,0.06,0.07
2.675,0.03,0.00,0.06,0.07
2.685,0.03,-0.00,0.04,0.05
2.695,0.02,-0.02,0.03,0.04
2.705,0.00,-0.03,0.01,0.04
2.715,-0.01,-0.02,0.01,0.03
2.725,-0.02,-0.01,0.02,0.03
2.735,-0.03,0.00,0.01,0.03
2.745,-0.02,0.00,0.01,0.02
2.756,-0.01,0.01,0.00,0.01
2.766,-0.01,-0.01,0.00,0.01
2.776,0.01,-0.04,-0.01,0.04
2.786,0.02,-0.03,-0.00,0.04
2.796,0.01,-0.03,0.01,0.04
2.806,0.01,-0.03,0.02,0.04
2.816,0.02,0.01,0.02,0.03
2.826,0.02,0.05,0.06,0.08
2.836,0.03,0.11,0.05,0.12
2.846,0.06,0.10,-0.00,0.12
2.856,0.06,0.08,-0.05,0.12
2.866,0.03,0.06,-0.09,0.11
2.876,-0.00,0.01,-0.04,0.04
2.886,-0.02,-0.03,0.01,0.04
2.896,-0.01,-0.08,0.08,0.11
2.906,0.00,-0.12,0.07,0.14
2.917,0.01,-0.13,0.05,0.14
2.926,0.01,-0.08,0.03,0.09
2.937,-0.00,-0.03,0.03,0.04
2.947,-0.02,-0.01,0.02,0.03
2.957,-0.02,0.02,0.02,0.03
2.967,0.01,0.02,0.03,0.04
2.977,0.03,0.01,0.04,0.05
2.987,0.03,-0.00,0.04,0.06
2.997,0.03,0.01,0.04,0.05
3.007,0.01,0.03,0.04,0.05
3.017,-0.01,0.05,0.04,0.06
3.027,-0.01,0.05,-0.00,0.05
3.037,-0.01,0.04,-0.04,0.06
3.047,-0.00,0.02,-0.03,0.04
3.057,0.03,0.02,-0.04,0.05
3.067,0.04,-0.01,-0.02,0.05
3.077,0.05,-0.02,0.03,0.06
3.087,0.06,-0.02,0.06,0.09
3.097,0.04,-0.02,0.05,0.07
3.107,0.01,-0.02,0.04,0.05
3.118,-0.01,-0.01,0.01,0.02
3.128,-0.02,0.01,0.01,0.03
3.138,-0.03,-0.00,-0.03,0.04
3.148,0.01,-0.02,-0.02,0.03
3.158,0.02,-0.02,0.00,0.03
3.168,0.03,-0.02,0.01,0.04
3.178,0.03,-0.04,0.01,0.05
3.188,0.01,-0.02,0.03,0.04
3.198,-0.01,-0.00,0.05,0.05
3.208,-0.00,0.02,0.03,0.04
3.218,-0.01,0.02,0.02,0.03
3.228,0.01,0.00,0.02,0.02
3.238,0.03,0.01,0.01,0.03
3.249,0.03,-0.00,0.00,0.03
3.258,0.03,0.00,0.00,0.03
3.268,0.02,0.02,0.01,0.03
3.279,0.00,0.02,0.03,0.04
3.289,-0.03,0.01,0.02,0.04
3.299,-0.01,0.01,0.04,0.04
3.309,0.00,-0.01,0.05,0.05
3.319,0.00,-0.01,0.05,0.05
3.329,-0.01,-0.02,0.05,0.05
3.339,-0.00,-0.03,0.06,0.07
3.349,0.01,-0.04,0.06,0.07
3.359,0.02,-0.04,0.04,0.06
3.369,0.01,-0.03,0.03,0.05
3.379,-0.00,-0.01,0.01,0.01
3.389,0.00,-0.01,-0.03,0.03
3.399,0.01,-0.01,-0.04,0.04
3.409,0.01,-0.01,-0.02,0.03
3.419,0.02,-0.02,-0.00,0.02
3.429,0.01,-0.01,0.02,0.02
3.439,-0.01,0.01,0.06,0.06
3.450,-0.01,0.02,0.05,0.05
3.459,-0.02,0.02,0.03,0.04
3.469,-0.03,0.01,0.00,0.03
3.480,-0.02,0.01,-0.03,0.04
3.490,0.00,-0.00,-0.05,0.05
3.500,0.02,-0.01,-0.02,0.03
3.510,0.05,-0.00,0.01,0.05
3.520,0.05,0.01,0.05,0.07
3.530,0.06,0.06,0.09,0.12
3.540,0.07,0.09,0.05,0.12
3.550,0.06,0.09,0.00,0.10
3.560,0.01,0.06,-0.03,0.07
3.570,-0.03,0.02,-0.05,0.06
3.580,-0.06,-0.04,-0.02,0.07
3.590,-0.03,-0.08,0.03,0.08
3.600,0.00,-0.13,0.04,0.13
3.610,0.02,-0.13,0.05,0.14
3.621,0.02,-0.10,0.05,0.11
3.630,-0.01,-0.06,0.03,0.06
3.641,-0.02,-0.01,0.05,0.05
3.651,-0.02,0.00,0.06,0.06
3.661,-0.03,0.01,0.05,0.06
3.671,-0.01,0.01,0.06,0.06
3.681,0.01,0.01,0.04,0.05
3.691,0.01,0.01,0.03,0.03
3.701,0.02,0.02,0.03,0.04
3.711,0.02,0.04,0.02,0.05
3.721,0.02,0.07,0.03,0.08
3.731,0.03,0.05,-0.01,0.06
3.741,0.02,0.03,-0.03,0.05
3.751,0.00,0.02,-0.03,0.04
3.761,-0.00,-0.01,-0.04,0.04
3.771,-0.01,-0.01,-0.02,0.02
3.781,-0.01,-0.00,0.02,0.02
3.791,-0.00,-0.02,0.04,0.05
3.802,0.01,-0.01,0.03,0.04
3.811,0.03,-0.01,0.02,0.04
3.822,0.04,-0.02,0.02,0.05
3.832,0.01,-0.03,0.02,0.04
3.842,0.01,-0.02,0.03,0.04
3.852,-0.02,-0.01,0.01,0.02
3.862,-0.03,-0.02,0.01,0.03
3.872,-0.02,-0.03,0.02,0.04
3.882,-0.00,-0.03,0.01,0.04
3.892,0.02,-0.03,0.03,0.05
3.902,0.04,-0.00,0.02,0.04
3.912,0.03,0.01,0.02,0.04
3.922,-0.01,0.02,0.02,0.03
3.932,-0.01,0.02,0.03,0.04
3.942,-0.01,0.01,0.02,0.02
3.952,-0.01,0.00,0.02,0.02
3.962,-0.00,0.00,0.03,0.03
3.972,0.00,0.00,0.03,0.03
3.982,0.00,0.01,0.01,0.02
3.992,-0.00,0.03,-0.00,0.03
4.003,-0.03,0.04,0.01,0.05
4.013,-0.03,0.03,0.05,0.07
4.023,-0.02,0.02,0.05,0.06
4.033,0.01,-0.00,0.04,0.04
4.043,0.04,-0.02,0.04,0.06
4.053,0.04,-0.05,0.05,0.08
4.063,0.04,-0.04,0.04,0.07
4.073,0.03,-0.02,0.03,0.05
4.083,0.04,0.00,0.03,0.05
4.093,0.01,-0.01,0.01,0.02
4.103,0.01,-0.02,-0.01,0.02
4.113,0.03,-0.02,0.00,0.03
4.123,0.03,-0.01,0.00,0.04
4.133,0.01,-0.01,0.01,0.02
4.144,-0.01,-0.01,0.02,0.02
4.153,-0.00,-0.00,0.04,0.04
4.164,-0.01,0.02,0.04,0.05
4.174,-0.01,0.01,-0.00,0.02
4.184,0.00,0.00,-0.01,0.01
4.194,0.02,-0.01,-0.03,0.04
4.204,0.02,-0.00,-0.05,0.06
4.214,0.04,0.00,-0.03,0.05
4.224,0.03,0.01,-0.01,0.04
4.234,0.03,0.04,0.01,0.05
4.244,0.05,0.06,0.03,0.09
4.254,0.05,0.09,-0.00,0.11
4.264,0.06,0.10,-0.06,0.13
4.274,0.03,0.09,-0.07,0.12
4.284,-0.02,0.04,-0.05,0.07
4.294,-0.07,-0.01,-0.01,0.07
4.304,-0.06,-0.07,0.07,0.11
4.314,-0.04,-0.11,0.10,0.16
4.324,-0.04,-0.12,0.11,0.17
4.335,-0.04,-0.08,0.12,0.15
4.345,-0.03,-0.03,0.08,0.09
4.355,-0.02,-0.01,0.05,0.05
4.365,-0.01,-0.01,0.04,0.04
4.375,0.01,-0.00,0.06,0.06
4.385,0.02,-0.02,0.05,0.06
4.395,0.02,-0.00,0.04,0.04
4.405,0.02,-0.00,0.01,0.02
4.415,0.02,0.00,-0.03,0.04
4.425,0.01,0.02,-0.01,0.02
4.435,0.02,0.05,0.01,0.06
4.445,0.04,0.05,-0.01,0.07
4.455,0.04,0.05,-0.02,0.07
4.466,0.03,0.05,-0.01,0.06
4.475,0.02,0.01,-0.01,0.02
4.486,-0.01,-0.01,0.02,0.02
4.495,0.01,-0.01,0.07,0.07
4.505,0.01,-0.02,0.06,0.07
4.516,0.02,-0.01,0.04,0.04
4.526,0.03,0.01,0.02,0.04
4.536,0.04,0.01,-0.02,0.05
4.546,0.03,-0.00,-0.00,0.03
4.556,-0.01,-0.02,0.02,0.03
4.566,-0.01,-0.04,0.02,0.04
4.576,-0.01,-0.06,0.03,0.07
4.586,-0.01,-0.06,0.04,0.07
4.596,-0.01,-0.06,0.04,0.07
4.606,-0.00,-0.02,0.03,0.04
4.616,-0.01,0.01,0.03,0.03
4.626,-0.01,0.05,0.00,0.05
4.636,-0.01,0.04,0.01,0.04
4.646,-0.01,0.02,0.01,0.03
4.656,-0.00,0.02,0.00,0.02
4.666,-0.01,0.03,0.01,0.03
4.676,-0.02,0.03,0.02,0.04
4.687,0.00,0.03,0.02,0.03
4.697,-0.01,0.02,0.03,0.04
4.707,-0.01,-0.00,0.04,0.04
4.717,0.00,-0.01,0.02,0.02
4.727,-0.00,-0.01,0.00,0.01
4.737,0.01,-0.01,-0.00,0.01
4.747,0.01,-0.01,-0.01,0.02
4.757,0.00,0.00,-0.01,0.01
4.767,0.02,0.02,0.03,0.04
4.777,0.03,-0.00,0.04,0.05
4.787,0.06,-0.03,0.06,0.09
4.797,0.06,-0.05,0.08,0.11
4.807,0.06,-0.04,0.07,0.10
4.817,0.04,-0.03,0.03,0.06
4.827,0.03,-0.02,-0.01,0.03
4.837,0.02,-0.01,-0.02,0.03
4.848,-0.00,0.02,-0.02,0.02
4.857,-0.02,0.02,0.00,0.03
4.868,-0.01,-0.00,0.01,0.01
4.878,-0.01,-0.00,0.02,0.02
4.888,-0.01,0.02,0.05,0.05
4.898,-0.03,0.01,0.03,0.04
4.908,-0.03,-0.01,-0.00,0.03
4.918,-0.01,0.01,-0.01,0.02
4.928,-0.03,0.00,0.00,0.03
4.938,-0.03,-0.01,0.02,0.04
4.948,-0.01,-0.03,0.02,0.04
4.958,0.01,-0.02,0.04,0.05
4.968,0.05,0.02,0.07,0.09
4.978,0.08,0.06,0.08,0.13
4.988,0.09,0.10,0.03,0.13
4.998,0.06,0.10,-0.03,0.12
5.008,0.01,0.07,-0.03,0.08
5.018,-0.05,0.02,-0.04,0.07
5.029,-0.06,-0.05,0.02,0.08
5.038,-0.03,-0.11,0.08,0.14
5.049,-0.01,-0.16,0.10,0.19
5.059,0.02,-0.15,0.11,0.19
5.069,0.01,-0.11,0.07,0.13
5.079,-0.01,-0.06,0.02,0.06
5.089,-0.02,0.00,-0.00,0.02
5.099,-0.04,0.02,-0.02,0.04
5.109,-0.03,0.03,0.00,0.04
5.119,0.00,0.03,0.03,0.05
5.129,0.02,0.02,0.04,0.05
5.139,0.03,0.02,0.03,0.05
5.149,0.02,0.03,0.03,0.05
5.159,0.02,0.03,0.03,0.05
5.169,0.00,0.06,0.00,0.06
5.179,0.01,0.07,-0.04,0.08
5.189,0.00,0.05,-0.07,0.09
5.199,0.00,0.05,-0.08,0.10
5.210,-0.01,0.01,-0.05,0.05
5.220,-0.01,-0.02,0.01,0.03
5.230,0.00,-0.05,0.09,0.10
5.240,-0.01,-0.04,0.11,0.12
5.250,-0.02,-0.03,0.09,0.09
5.260,-0.01,-0.01,0.05,0.06
5.270,0.01,0.00,0.02,0.02
5.280,0.02,0.00,-0.00,0.02
5.290,0.04,-0.01,0.00,0.04
5.300,0.03,-0.03,-0.00,0.04
5.310,0.03,-0.05,0.01,0.06
5.320,-0.00,-0.05,0.01,0.05
5.330,-0.00,-0.03,0.02,0.04
5.340,-0.01,-0.00,0.03,0.03
5.350,-0.00,-0.00,0.01,0.01
5.360,0.02,-0.00,0.01,0.03
5.370,0.03,0.00,0.02,0.03
5.380,0.01,0.01,0.03,0.04
5.391,0.00,0.02,0.03,0.04
5.401,-0.01,0.03,0.03,0.04
5.411,-0.01,0.01,0.02,0.03
5.421,-0.02,-0.01,0.03,0.03
5.431,-0.01,-0.00,0.02,0.03
5.441,0.01,0.00,-0.01,0.02
5.451,0.04,0.02,-0.01,0.04
5.461,0.02,0.02,-0.02,0.03
5.471,0.00,0.01,-0.01,0.01
5.481,-0.01,-0.01,0.02,0.02
5.491,-0.01,-0.02,0.05,0.05
5.501,-0.01,-0.04,0.05,0.06
5.511,0.01,-0.02,0.03,0.04
5.521,0.00,-0.01,0.02,0.03
5.531,0.02,0.00,-0.00,0.02
5.541,0.02,0.01,-0.00,0.02
5.552,0.01,-0.00,0.01,0.01
5.561,-0.00,-0.02,0.05,0.05
5.572,-0.02,-0.01,0.05,0.05
5.582,-0.02,-0.03,0.06,0.07
5.592,-0.00,-0.02,0.06,0.07
5.602,0.01,0.00,0.04,0.04
5.612,0.02,0.00,0.00,0.02
5.622,0.03,0.01,-0.01,0.03
5.632,0.04,0.01,-0.02,0.04
5.642,0.02,0.01,-0.01,0.03
5.652,-0.01,-0.01,-0.00,0.01
5.662,-0.01,-0.01,0.03,0.04
5.672,-0.02,-0.03,0.05,0.06
5.682,-0.03,-0.01,0.07,0.07
5.692,-0.03,0.02,0.06,0.07
5.702,-0.02,0.01,0.03,0.04
5.712,-0.01,-0.01,0.00,0.02
5.722,0.00,-0.02,-0.02,0.03
5.732,0.00,-0.03,0.01,0.03
5.743,-0.00,-0.04,0.04,0.06
5.753,0.01,-0.02,0.06,0.07
5.763,0.03,0.03,0.07,0.09
5.773,0.06,0.08,0.08,0.12
5.783,0.06,0.11,0.01,0.12
5.793,0.03,0.10,-0.06,0.13
5.803,0.02,0.06,-0.09,0.11
5.813,-0.02,0.00,-0.05,0.05
5.823,-0.04,-0.06,0.03,0.08
5.833,-0.01,-0.11,0.09,0.14
5.843,0.01,-0.15,0.08,0.17
5.853,-0.01,-0.13,0.07,0.15
5.863,-0.00,-0.08,0.05,0.09
5.873,-0.02,-0.03,0.01,0.04
5.883,-0.00,0.02,-0.01,0.02
5.893,-0.01,0.03,0.00,0.03
5.903,-0.00,0.01,0.01,0.02
5.914,0.01,0.01,0.02,0.02
5.924,0.03,-0.01,0.02,0.04
5.934,0.02,0.01,0.03,0.04
5.944,-0.01,0.03,0.06,0.07
5.954,-0.01,0.03,0.04,0.05
5.964,-0.01,0.05,0.02,0.06
5.974,0.01,0.04,-0.01,0.04
5.984,-0.00,0.03,-0.05,0.05
5.994,0.00,0.02,-0.06,0.06
6.004,-0.00,0.01,-0.06,0.06
6.014,-0.01,-0.02,-0.01,0.02
6.024,0.00,-0.02,0.06,0.07
6.034,-0.00,-0.03,0.08,0.08
6.044,0.01,-0.03,0.05,0.06
6.054,0.01,-0.02,0.05,0.05
6.064,-0.00,-0.02,0.02,0.03
6.074,0.00,-0.01,0.00,0.01
6.085,-0.01,-0.00,-0.01,0.01
6.095,0.01,-0.01,-0.01,0.02
6.104,0.02,-0.01,-0.00,0.03
6.115,0.02,-0.04,0.03,0.05
6.125,0.02,-0.04,0.03,0.06
6.135,0.03,-0.03,0.05,0.06
6.145,0.03,-0.00,0.05,0.06
6.155,0.02,0.01,0.04,0.05
6.165,0.00,0.02,0.02,0.03
6.175,-0.02,0.02,0.01,0.03
6.185,-0.02,0.01,0.01,0.02
6.195,-0.02,0.00,0.01,0.03
6.205,-0.02,-0.00,0.02,0.03
6.215,-0.01,0.00,0.02,0.02
6.225,-0.01,0.01,0.01,0.02
6.235,-0.01,0.02,0.02,0.03
6.245,-0.01,0.00,0.02,0.02
6.256,0.00,-0.01,0.04,0.05
6.265,-0.00,-0.02,0.05,0.06
6.276,0.01,-0.02,0.04,0.04
6.286,-0.01,-0.01,0.02,0.02
6.296,-0.00,-0.01,-0.01,0.02
6.306,0.01,0.01,-0.00,0.01
6.316,-0.00,-0.01,0.00,0.01
6.326,-0.01,-0.01,0.01,0.02
6.336,-0.01,-0.01,0.02,0.02
6.346,-0.00,0.00,0.03,0.03
6.356,-0.00,0.00,0.02,0.02
6.366,0.01,-0.01,-0.01,0.02
6.376,0.03,-0.02,-0.01,0.03
6.386,0.02,0.00,0.01,0.02
6.396,0.02,0.00,0.03,0.03
6.406,0.00,-0.00,0.03,0.03
6.416,0.01,0.00,0.03,0.03
6.426,0.00,0.01,0.03,0.03
6.436,-0.01,-0.00,0.06,0.06
6.447,-0.00,0.01,0.04,0.04
6.457,0.02,0.00,0.04,0.04
6.467,0.03,-0.01,0.03,0.04
6.477,0.02,-0.03,0.02,0.04
6.487,0.00,-0.03,0.01,0.03
6.497,-0.01,-0.03,0.03,0.04
6.507,-0.03,-0.02,0.04,0.05
6.517,-0.03,-0.01,0.04,0.05
6.527,-0.03,0.00,0.04,0.05
6.537,-0.03,0.00,0.03,0.04
6.547,-0.02,-0.01,-0.00,0.02
6.557,0.01,-0.02,-0.01,0.02
6.567,0.00,-0.03,-0.02,0.04
6.577,-0.00,-0.05,-0.02,0.05
6.587,0.01,-0.02,-0.00,0.02
6.598,0.00,0.01,0.05,0.05
6.607,0.00,0.05,0.08,0.10
6.618,0.04,0.10,0.08,0.13
6.628,0.05,0.13,0.04,0.15
6.638,0.04,0.10,-0.05,0.12
6.648,0.03,0.05,-0.07,0.09
6.658,-0.02,-0.01,-0.06,0.07
6.668,-0.05,-0.06,-0.00,0.08
6.678,-0.03,-0.11,0.07,0.14
6.688,-0.01,-0.13,0.10,0.16
6.698,0.00,-0.12,0.08,0.15
6.708,0.01,-0.10,0.06,0.12
6.718,0.01,-0.04,0.06,0.07
6.728,-0.03,-0.01,0.04,0.05
6.738,-0.02,0.02,0.04,0.05
6.748,-0.01,0.01,0.02,0.03
6.758,0.01,-0.00,0.03,0.03
6.768,0.01,0.01,0.01,0.02
6.778,0.02,0.02,0.01,0.03
6.788,0.02,0.03,0.00,0.03
6.799,0.01,0.05,0.02,0.05
6.809,0.00,0.08,0.01,0.08
6.819,-0.01,0.07,-0.03,0.08
6.829,0.01,0.06,-0.05,0.07
6.839,-0.01,0.04,-0.06,0.07
6.849,-0.00,-0.01,-0.04,0.04
6.859,0.01,-0.04,0.02,0.04
6.869,-0.00,-0.04,0.07,0.08
6.879,0.00,-0.04,0.09,0.10
6.889,-0.01,-0.03,0.07,0.08
6.899,0.01,-0.01,0.03,0.03
6.909,-0.01,0.00,0.02,0.02
6.919,-0.01,-0.00,-0.02,0.02
6.929,-0.01,0.02,-0.02,0.03
6.939,-0.01,-0.01,-0.02,0.03
6.949,0.01,-0.03,0.00,0.03
6.959,0.02,-0.03,0.03,0.05
6.969,0.02,-0.04,0.05,0.06
6.980,0.03,-0.04,0.06,0.08
6.990,0.02,-0.03,0.07,0.08
7.000,0.01,-0.02,0.05,0.06
7.010,-0.00,0.01,0.01,0.02
7.020,-0.01,0.03,-0.00,0.03
7.030,-0.01,0.04,-0.02,0.05
7.040,-0.02,0.03,-0.02,0.04
7.050,-0.01,0.01,0.01,0.02
7.060,0.01,0.01,0.03,0.03
7.070,-0.00,-0.00,0.04,0.04
7.080,-0.01,-0.01,0.03,0.03
7.090,-0.01,-0.01,0.01,0.02
7.100,-0.01,-0.01,0.01,0.02
7.110,-0.01,-0.00,-0.00,0.02
7.120,-0.01,-0.01,-0.00,0.02
7.130,0.00,-0.02,0.01,0.03
7.140,-0.00,-0.02,0.04,0.04
7.151,0.00,-0.02,0.04,0.05
7.161,0.01,-0.03,0.05,0.05
7.171,0.01,-0.02,0.06,0.06
7.181,0.02,0.00,0.08,0.08
7.191,0.02,-0.01,0.07,0.08
7.201,0.01,-0.01,0.06,0.06
7.211,-0.00,-0.02,0.06,0.07
7.221,-0.02,-0.02,0.06,0.07
7.231,-0.00,-0.01,0.06,0.06
7.241,-0.02,-0.02,0.08,0.09
7.251,0.00,-0.02,0.07,0.08
7.261,0.02,-0.02,0.06,0.07
7.271,0.03,-0.03,0.04,0.06
7.281,0.04,-0.02,-0.00,0.04
7.291,0.02,-0.01,-0.02,0.03
7.302,-0.01,-0.00,-0.04,0.04
7.311,-0.03,0.01,-0.03,0.04
7.322,-0.03,0.02,-0.02,0.04
7.332,-0.03,0.01,0.02,0.04
7.342,-0.02,0.00,0.02,0.03
7.352,-0.01,0.00,0.04,0.04
7.362,-0.00,0.02,0.03,0.03
7.372,0.01,0.00,-0.01,0.02
7.382,0.01,-0.01,-0.06,0.06
7.392,-0.01,-0.00,-0.06,0.06
7.402,-0.02,-0.01,-0.04,0.05
7.412,-0.01,-0.02,-0.01,0.02
7.422,0.00,0.00,0.00,0.01
7.432,0.03,0.04,0.05,0.07
7.442,0.05,0.09,0.08,0.13
7.452,0.06,0.09,-0.02,0.11
7.462,0.04,0.09,-0.08,0.13
7.472,0.01,0.09,-0.09,0.13
7.483,-0.05,0.03,-0.05,0.08
7.493,-0.06,-0.03,0.02,0.07
7.503,-0.05,-0.08,0.08,0.12
7.513,-0.04,-0.13,0.09,0.16
7.523,-0.03,-0.12,0.12,0.17
7.533,-0.03,-0.11,0.09,0.15
7.543,-0.02,-0.07,0.05,0.09
7.553,-0.00,-0.02,0.04,0.05
7.563,-0.00,-0.01,0.03,0.03
7.573,-0.01,0.01,0.03,0.03
7.583,-0.01,0.02,0.02,0.04
7.593,0.01,0.03,0.01,0.03
7.603,0.02,0.03,0.00,0.03
7.613,0.02,0.02,-0.01,0.03
7.623,0.01,0.02,0.02,0.03
7.633,0.00,0.03,0.01,0.03
7.643,0.01,0.05,-0.01,0.05
7.653,0.01,0.05,-0.03,0.06
7.664,0.01,0.05,-0.04,0.07
7.674,0.00,0.03,-0.02,0.04
7.684,-0.00,-0.01,0.02,0.02
7.694,0.01,-0.05,0.05,0.07
7.704,0.03,-0.05,0.06,0.09
7.714,0.03,-0.04,0.08,0.09
7.724,0.02,-0.01,0.04,0.05
7.734,0.02,0.00,0.02,0.03
7.744,0.02,0.00,-0.00,0.02
7.754,-0.01,0.01,-0.00,0.01
7.764,-0.02,-0.02,-0.01,0.03
7.774,-0.01,-0.04,-0.02,0.04
7.784,-0.01,-0.05,0.02,0.05
7.794,-0.01,-0.03,0.01,0.03
7.805,0.00,-0.02,0.02,0.03
7.814,0.02,-0.00,0.02,0.03
7.824,0.01,0.01,0.03,0.04
7.834,-0.01,0.00,0.02,0.02
7.844,-0.02,0.02,0.01,0.03
7.855,-0.02,0.02,0.00,0.03
7.865,-0.03,0.04,0.02,0.05
7.875,-0.02,0.04,0.03,0.05
7.885,-0.02,0.02,0.02,0.04
7.895,-0.00,0.01,0.04,0.04
7.905,0.00,-0.01,0.05,0.05
7.915,-0.00,-0.02,0.02,0.03
7.925,0.00,-0.01,0.01,0.02
7.935,-0.02,-0.00,-0.03,0.03
7.945,-0.01,-0.00,-0.01,0.01
7.955,0.00,-0.01,0.01,0.01
7.965,0.00,-0.03,0.02,0.03
7.975,0.02,-0.02,0.04,0.05
7.985,0.02,-0.02,0.06,0.07
7.995,-0.00,-0.01,0.05,0.05
8.005,0.02,-0.01,0.04,0.05
8.015,0.02,-0.01,0.03,0.03
8.026,0.00,-0.01,0.03,0.03
8.036,0.01,-0.01,0.05,0.05
8.046,0.01,-0.00,0.01,0.02
8.056,0.02,0.00,-0.00,0.02
8.066,-0.01,0.01,-0.02,0.02
8.076,-0.01,0.02,-0.02,0.03
8.086,-0.02,0.01,-0.01,0.02
8.096,-0.00,0.00,0.03,0.03
8.106,-0.02,-0.01,0.05,0.05
8.116,-0.03,-0.01,0.07,0.08
8.126,-0.02,-0.02,0.06,0.06
8.136,-0.02,-0.02,0.01,0.03
8.146,-0.01,-0.02,-0.03,0.04
8.156,0.01,-0.01,-0.04,0.04
8.166,0.01,-0.02,-0.03,0.04
8.176,0.00,-0.01,0.02,0.02
8.187,0.02,-0.01,0.07,0.07
8.196,0.00,0.03,0.09,0.10
8.207,0.03,0.07,0.11,0.13
8.217,0.04,0.09,0.04,0.11
8.227,0.04,0.09,-0.04,0.10
8.237,0.01,0.05,-0.10,0.11
8.247,-0.01,0.01,-0.07,0.08
8.257,-0.03,-0.05,-0.02,0.06
8.267,-0.04,-0.09,0.02,0.10
8.277,-0.03,-0.12,0.09,0.15
8.287,0.00,-0.12,0.07,0.14
8.297,-0.01,-0.08,0.07,0.10
8.307,0.01,-0.03,0.07,0.07
8.317,-0.01,-0.01,0.05,0.05
8.327,0.00,0.01,0.06,0.06
8.337,-0.00,0.01,0.05,0.05
8.347,-0.00,0.01,0.03,0.03
8.358,0.00,0.02,0.02,0.03
8.367,0.01,0.02,-0.00,0.02
8.378,0.02,0.02,-0.00,0.03
8.388,0.01,0.05,0.04,0.06
8.398,0.02,0.05,0.02,0.06
8.408,0.02,0.07,0.00,0.07
8.418,0.02,0.04,-0.02,0.05
8.428,0.00,0.01,-0.03,0.03
8.438,-0.01,-0.03,-0.01,0.03
8.448,-0.01,-0.05,0.03,0.06
8.458,0.00,-0.06,0.07,0.09
8.468,0.01,-0.05,0.06,0.08
8.478,0.00,-0.02,0.05,0.05
8.488,0.01,0.01,0.02,0.03
8.498,-0.00,0.01,-0.00,0.01
8.508,-0.00,0.02,-0.02,0.03
8.518,0.01,0.00,-0.00,0.01
8.528,0.02,-0.02,0.01,0.03
8.538,0.02,-0.05,0.04,0.07
8.549,0.02,-0.05,0.06,0.08
8.559,0.00,-0.04,0.05,0.07
8.569,-0.01,-0.02,0.04,0.05
8.579,-0.01,-0.02,0.01,0.02
8.589,-0.01,0.02,0.01,0.02
8.599,0.00,0.03,0.01,0.04
8.609,0.02,0.03,0.01,0.03
8.619,0.03,0.01,0.00,0.03
8.629,0.02,-0.01,0.03,0.04
8.639,-0.01,-0.03,0.04,0.05
8.649,-0.02,-0.01,0.04,0.04
8.659,-0.02,0.01,0.03,0.04
8.669,-0.03,0.01,-0.01,0.03
8.679,-0.02,0.01,-0.00,0.02
8.689,-0.00,0.02,-0.01,0.02
8.699,0.00,-0.02,0.00,0.02
8.709,-0.00,-0.03,0.01,0.03
8.720,0.00,-0.03,0.01,0.03
8.730,-0.00,-0.01,0.02,0.03
8.740,-0.01,0.00,0.02,0.03
8.750,0.02,0.01,0.03,0.03
8.760,0.04,-0.02,0.04,0.06
8.770,0.05,-0.02,0.06,0.08
8.780,0.02,-0.03,0.05,0.06
8.790,-0.00,0.00,0.04,0.04
8.800,-0.00,0.01,0.01,0.02
8.810,-0.00,0.00,-0.00,0.01
8.820,0.02,0.01,-0.00,0.02
8.830,0.02,-0.01,0.01,0.03
8.840,0.02,-0.02,0.02,0.03
8.850,0.00,-0.02,0.05,0.06
8.860,-0.01,-0.02,0.05,0.05
8.870,-0.04,-0.01,0.05,0.07
8.880,-0.04,0.00,0.05,0.07
8.891,-0.04,0.00,0.02,0.04
8.900,-0.01,-0.02,0.01,0.02
8.911,0.02,-0.01,-0.00,0.02
8.921,0.03,-0.05,-0.02,0.06
8.931,0.02,-0.04,0.00,0.05
8.941,0.02,-0.01,0.01,0.02
8.951,-0.01,0.03,0.03,0.04
8.961,-0.01,0.08,0.05,0.10
8.971,0.03,0.10,0.07,0.13
8.981,0.04,0.10,0.02,0.11
8.991,0.03,0.06,-0.02,0.07
9.001,0.01,0.01,-0.03,0.04
9.011,-0.03,-0.03,-0.02,0.05
9.021,-0.03,-0.09,0.01,0.09
9.031,-0.03,-0.12,0.02,0.12
9.041,-0.01,-0.11,0.02,0.11
9.051,-0.02,-0.06,0.02,0.07
9.061,-0.01,-0.02,0.03,0.03
9.071,-0.00,0.01,0.01,0.02
9.082,-0.00,0.02,0.01,0.02
9.092,0.01,0.03,0.04,0.05
9.102,0.00,0.01,0.08,0.08
9.112,-0.02,-0.01,0.08,0.09
9.122,-0.02,-0.01,0.06,0.06
9.132,0.01,-0.01,0.05,0.06
9.142,-0.00,0.03,0.04,0.05
9.152,0.00,0.04,0.04,0.05
9.162,0.02,0.03,0.01,0.03
9.172,0.02,0.01,-0.03,0.04
9.182,0.02,0.01,-0.06,0.06
9.192,0.01,-0.01,-0.06,0.06
9.202,-0.00,-0.03,-0.04,0.05
9.212,-0.01,-0.04,0.03,0.05
9.222,-0.01,-0.03,0.08,0.08
9.233,-0.00,-0.02,0.08,0.08
9.242,0.01,-0.03,0.06,0.07
9.253,0.01,-0.01,0.04,0.04
9.263,0.00,-0.00,0.01,0.01
9.273,0.00,0.01,-0.01,0.01
9.283,0.02,0.02,-0.02,0.03
9.293,0.01,0.00,-0.01,0.02
9.303,0.01,-0.01,0.01,0.02
9.313,0.01,-0.02,0.03,0.04
9.323,0.01,-0.03,0.04,0.05
9.333,0.00,-0.02,0.03,0.04
9.343,-0.03,-0.02,0.02,0.04
9.353,-0.02,0.00,0.03,0.04
9.363,-0.03,0.01,0.02,0.04
9.373,-0.02,0.02,0.02,0.03
9.383,-0.00,0.01,0.04,0.05
9.393,-0.01,-0.01,0.04,0.05
9.403,-0.01,-0.01,0.04,0.04
9.413,-0.02,-0.00,0.03,0.03
9.424,-0.01,-0.00,0.02,0.02
9.434,-0.02,-0.01,0.00,0.02
9.443,0.00,-0.01,0.01,0.01
9.454,-0.01,-0.00,0.02,0.02
9.464,0.00,-0.01,0.03,0.03
9.474,0.02,-0.02,0.00,0.02
9.484,0.03,0.01,0.02,0.04
9.494,0.02,-0.00,0.04,0.05
9.504,0.02,-0.01,0.04,0.04
9.514,0.01,-0.01,0.04,0.04
9.524,0.00,-0.01,0.05,0.05
9.534,-0.00,-0.02,0.06,0.06
9.544,0.00,-0.01,0.04,0.04
9.554,0.02,-0.02,0.01,0.02
9.564,0.03,-0.01,-0.00,0.03
9.574,0.04,-0.02,-0.01,0.04
9.584,0.02,-0.02,-0.02,0.03
9.594,-0.01,0.01,-0.00,0.01
9.604,-0.02,0.02,0.02,0.03
9.615,-0.02,0.01,0.02,0.03
9.625,-0.02,0.00,0.03,0.04
9.635,-0.01,0.01,0.07,0.07
9.645,0.00,0.00,0.05,0.05
9.655,0.02,0.00,0.02,0.03
9.665,0.03,0.00,-0.00,0.03
9.675,0.00,-0.01,-0.00,0.01
9.685,-0.01,-0.02,0.01,0.02
9.695,-0.00,-0.03,0.04,0.05
9.705,0.01,-0.01,0.05,0.05
9.715,0.02,0.03,0.05,0.06
9.725,0.05,0.09,0.06,0.12
9.735,0.07,0.10,-0.01,0.12
9.745,0.06,0.08,-0.07,0.12
9.755,0.02,0.06,-0.07,0.09
9.766,-0.03,-0.01,-0.03,0.04
9.776,-0.02,-0.07,0.04,0.08
9.786,-0.02,-0.12,0.08,0.15
9.796,-0.01,-0.14,0.07,0.16
9.806,-0.03,-0.13,0.06,0.15
9.816,-0.02,-0.07,0.03,0.07
9.826,-0.02,-0.02,-0.01,0.03
9.836,0.00,0.03,0.01,0.03
9.846,0.01,0.03,0.05,0.06
9.856,0.02,0.02,0.06,0.07
9.866,0.02,0.01,0.06,0.07
9.876,0.01,0.01,0.03,0.04
9.886,-0.01,0.02,0.01,0.02
9.896,-0.02,0.03,-0.00,0.04
9.906,-0.01,0.05,0.01,0.05
9.916,0.01,0.07,0.01,0.07
9.926,0.03,0.06,-0.02,0.07
9.936,0.04,0.04,-0.04,0.07
9.947,0.02,0.01,-0.01,0.03
9.957,-0.01,-0.02,0.00,0.02
9.966,-0.01,-0.05,0.02,0.06
9.977,-0.01,-0.06,0.05,0.08
9.987,-0.00,-0.05,0.07,0.09
9.997,0.02,-0.02,0.03,0.05
10.007,0.02,0.01,0.03,0.04
10.017,0.02,0.01,0.02,0.03
10.027,0.02,0.02,0.01,0.03
10.037,0.00,0.00,0.02,0.02
10.047,0.02,-0.01,0.03,0.04
10.057,0.03,-0.05,0.05,0.07
10.067,0.01,-0.05,0.05,0.07
10.077,-0.00,-0.04,0.04,0.06
10.087,0.01,-0.01,0.01,0.01
10.097,-0.01,0.01,-0.01,0.01
10.107,-0.01,0.04,-0.02,0.04
10.118,-0.00,0.04,-0.00,0.04
10.127,0.00,0.04,0.03,0.05
10.138,0.01,0.01,0.04,0.04
10.148,0.02,0.00,0.04,0.04
10.158,0.01,-0.02,0.05,0.06
10.168,-0.00,-0.02,0.04,0.05
10.178,-0.02,-0.01,0.02,0.03
10.188,-0.02,0.00,-0.01,0.03
10.198,-0.02,0.01,-0.02,0.03
10.208,-0.02,0.01,-0.02,0.03
10.218,0.01,0.02,-0.01,0.02
10.228,0.02,0.01,0.01,0.02
10.238,0.03,-0.01,0.03,0.04
10.248,0.01,-0.05,0.05,0.07
10.258,0.02,-0.04,0.05,0.06
10.268,-0.00,-0.01,0.05,0.05
10.278,-0.01,-0.00,0.06,0.06
10.288,0.01,-0.00,0.05,0.05
10.299,0.02,0.00,0.06,0.06
10.308,0.03,-0.02,0.03,0.04
10.319,0.04,-0.02,-0.00,0.04
10.329,0.03,-0.03,-0.01,0.04
10.339,0.01,-0.03,-0.02,0.04
10.349,-0.00,-0.01,-0.00,0.01
10.359,-0.02,0.02,0.02,0.03
10.369,-0.02,0.02,0.02,0.04
10.379,-0.01,0.01,0.06,0.06
10.389,-0.00,0.01,0.09,0.09
10.399,-0.01,-0.02,0.07,0.07
10.409,-0.00,-0.02,0.01,0.02
10.419,-0.02,-0.02,-0.01,0.03
10.429,-0.02,-0.02,-0.03,0.04
10.439,0.00,-0.01,-0.03,0.03
10.449,0.01,-0.01,0.01,0.02
10.459,0.01,0.01,0.05,0.05
10.469,0.01,0.00,0.06,0.06
10.480,0.04,0.05,0.08,0.10
10.490,0.06,0.08,0.04,0.11
10.500,0.04,0.07,-0.03,0.09
10.510,0.01,0.05,-0.08,0.09
10.520,-0.03,0.01,-0.08,0.09
10.530,-0.05,-0.03,-0.03,0.07
10.540,-0.04,-0.07,0.02,0.09
10.550,0.00,-0.11,0.04,0.12
10.560,0.01,-0.11,0.04,0.12
10.570,0.02,-0.08,0.05,0.09
10.580,0.01,-0.03,0.05,0.06
10.590,-0.01,-0.00,0.05,0.05
10.600,-0.02,0.01,0.08,0.09
10.610,-0.03,0.01,0.09,0.09
10.620,-0.03,0.00,0.09,0.10
10.630,-0.01,0.01,0.06,0.06
10.640,0.01,0.01,0.03,0.03
10.650,0.01,0.03,-0.00,0.03
10.661,0.01,0.04,0.00,0.04
10.671,0.00,0.04,0.02,0.04
10.681,0.02,0.02,0.02,0.04
10.691,0.02,0.02,0.00,0.02
10.701,0.02,0.00,-0.02,0.02
10.711,0.01,0.01,-0.02,0.03
10.721,-0.02,0.00,-0.03,0.03
10.731,-0.02,-0.05,-0.01,0.05
10.741,0.02,-0.04,0.02,0.05
10.751,0.01,-0.03,0.04,0.05
10.761,0.03,-0.02,0.04,0.05
10.771,0.03,-0.02,0.03,0.05
10.781,0.05,-0.00,0.03,0.06
10.791,0.03,0.02,0.02,0.04
10.801,0.02,-0.01,0.00,0.02
10.811,0.01,-0.01,-0.01,0.02
10.821,-0.01,-0.02,-0.01,0.02
10.831,-0.01,-0.02,0.01,0.03
10.842,-0.01,-0.02,0.02,0.03
10.852,0.00,-0.01,0.03,0.03
10.862,0.01,-0.01,0.03,0.03
10.872,0.01,0.01,0.03,0.03
10.882,-0.01,0.01,0.02,0.02
10.892,-0.02,0.02,0.01,0.03
10.902,-0.01,0.02,0.01,0.02
10.912,-0.02,0.02,0.03,0.04
10.922,-0.02,0.01,0.03,0.04
10.932,-0.01,-0.03,0.03,0.05
10.942,-0.02,-0.02,0.04,0.05
10.952,-0.02,-0.00,0.03,0.03
10.962,-0.01,-0.00,-0.00,0.01
10.972,-0.01,0.01,-0.01,0.01
10.982,-0.00,0.02,-0.01,0.02
10.992,0.01,0.01,0.02,0.02
11.003,-0.01,-0.01,0.04,0.04
11.012,-0.01,-0.01,0.03,0.03
11.023,0.00,-0.01,0.07,0.07
11.033,0.02,-0.02,0.07,0.07
11.043,0.03,-0.03,0.07,0.09
11.053,0.04,-0.03,0.04,0.06
11.063,0.05,-0.03,0.04,0.07
11.073,0.03,-0.03,0.01,0.04
11.083,0.03,-0.04,-0.02,0.06
11.093,0.02,-0.03,-0.03,0.04
11.103,-0.03,0.00,-0.01,0.03
11.113,-0.01,0.00,0.01,0.02
11.123,0.00,0.00,0.02,0.02
11.133,0.02,0.03,0.05,0.06
11.143,-0.00,0.01,0.07,0.07
11.153,-0.02,-0.01,0.05,0.06
11.163,-0.01,-0.02,0.03,0.04
11.173,-0.01,-0.02,-0.01,0.02
11.184,-0.01,-0.02,-0.02,0.03
11.194,-0.02,-0.02,-0.01,0.03
11.204,0.01,-0.01,0.02,0.03
11.214,0.01,0.03,0.05,0.06
11.224,0.01,0.05,0.07,0.09
11.234,0.05,0.07,0.06,0.10
11.244,0.04,0.05,0.01,0.07
11.254,0.01,0.04,-0.04,0.06
11.264,-0.02,0.02,-0.06,0.06
11.274,-0.05,-0.01,-0.02,0.06
11.284,-0.02,-0.05,0.01,0.06
11.294,-0.00,-0.09,0.05,0.10
11.304,0.02,-0.10,0.07,0.13
11.314,0.00,-0.10,0.06,0.12
11.324,-0.01,-0.08,0.05,0.09
11.335,-0.02,-0.04,0.03,0.05
11.344,-0.03,-0.02,0.03,0.05
11.355,-0.02,-0.01,0.04,0.04
11.365,-0.00,0.01,0.01,0.02
11.375,0.02,0.02,-0.01,0.03
11.385,0.06,0.04,-0.01,0.07
11.395,0.04,0.05,0.00,0.06
11.405,0.01,0.03,0.02,0.03
11.415,-0.01,0.05,0.02,0.05
11.425,-0.02,0.05,-0.00,0.05
11.435,-0.03,0.04,-0.03,0.06
11.445,-0.03,0.02,-0.05,0.06
11.455,0.06,-0.00,-0.06,0.08
11.465,0.07,-0.02,-0.03,0.07
11.475,0.00,-0.04,0.06,0.07
11.485,0.00,-0.05,0.11,0.12
11.495,0.01,-0.05,0.09,0.10
11.505,-0.02,-0.02,0.08,0.08
11.515,-0.02,0.01,0.03,0.03
11.525,0.00,0.00,-0.01,0.01
11.535,0.00,-0.01,-0.02,0.03
11.546,0.01,-0.00,-0.02,0.02
11.556,0.03,-0.02,-0.01,0.03
11.566,0.03,-0.02,0.03,0.04
11.576,0.00,-0.03,0.05,0.06
11.586,-0.03,-0.04,0.04,0.06
11.596,-0.01,-0.03,0.04,0.05
11.606,-0.00,-0.01,0.03,0.03
11.616,0.01,0.01,0.03,0.03
11.626,0.00,0.03,-0.01,0.03
11.636,0.01,0.01,0.01,0.02
11.646,0.02,0.02,0.03,0.04
11.656,0.01,0.00,0.07,0.07
11.666,0.02,-0.00,0.07,0.07
11.676,0.00,-0.02,0.04,0.04
11.686,-0.02,-0.01,0.02,0.03
11.696,-0.03,-0.01,-0.01,0.04
11.707,-0.03,0.01,-0.03,0.05
11.717,-0.01,-0.00,-0.04,0.04
11.727,-0.00,-0.01,-0.01,0.01
11.737,0.01,-0.02,0.00,0.02
11.747,0.02,-0.03,0.01,0.04
11.757,0.02,-0.01,0.04,0.04
11.767,0.00,-0.02,0.04,0.04
11.777,0.01,-0.01,0.03,0.03
11.787,0.01,0.01,0.06,0.06
11.797,-0.01,0.01,0.04,0.05
11.807,-0.00,-0.01,0.05,0.05
11.817,0.01,-0.01,0.02,0.03
11.827,0.02,-0.03,-0.00,0.04
11.837,0.01,-0.02,0.00,0.02
11.847,0.00,-0.02,-0.02,0.03
11.857,-0.02,0.01,0.01,0.02
11.868,-0.01,0.02,0.02,0.03
11.877,-0.01,-0.00,0.04,0.04
11.888,0.00,0.00,0.05,0.05
11.898,-0.02,-0.01,0.06,0.07
11.908,-0.01,-0.02,0.02,0.03
11.918,-0.01,-0.01,-0.01,0.02
11.928,0.00,-0.02,-0.04,0.04
11.938,0.02,-0.01,-0.05,0.06
11.948,0.01,-0.02,-0.03,0.04
11.958,0.02,0.00,0.02,0.03
11.968,0.01,0.02,0.04,0.05
11.978,0.02,0.04,0.07,0.08
11.988,0.04,0.06,0.09,0.12
11.998,0.06,0.07,0.01,0.09
12.008,0.04,0.06,-0.04,0.08
12.018,-0.00,0.05,-0.05,0.07
12.028,-0.04,0.02,-0.01,0.04
12.038,-0.04,-0.04,0.04,0.07
12.049,-0.03,-0.11,0.07,0.13
12.058,-0.01,-0.14,0.08,0.16
12.069,-0.01,-0.13,0.07,0.14
12.079,-0.02,-0.09,0.06,0.11
12.089,-0.02,-0.02,0.02,0.04
12.099,-0.02,0.02,-0.00,0.03
12.109,-0.00,0.02,0.01,0.02
12.119,-0.01,0.02,0.04,0.04
12.129,0.01,-0.02,0.03,0.04
12.139,0.03,-0.00,0.02,0.03
12.149,0.04,0.01,0.01,0.04
12.159,0.03,0.00,0.01,0.03
12.169,0.01,0.04,0.01,0.05
12.179,-0.00,0.07,0.03,0.07
12.189,0.01,0.08,-0.02,0.08
12.199,0.00,0.06,-0.03,0.06
12.209,-0.01,0.01,-0.03,0.03
12.219,-0.01,-0.02,0.00,0.02
12.230,-0.01,-0.06,0.04,0.07
12.239,0.00,-0.05,0.05,0.08
12.250,0.00,-0.05,0.04,0.06
12.260,0.03,-0.02,0.01,0.03
12.270,0.02,0.00,0.00,0.02
12.280,0.01,0.02,0.01,0.03
12.290,0.01,0.01,0.02,0.03
12.300,0.01,-0.01,0.04,0.04
12.310,0.01,-0.02,0.06,0.07
12.320,0.01,-0.04,0.04,0.06
12.330,-0.00,-0.04,0.03,0.05
12.340,-0.01,-0.02,0.03,0.03
12.350,-0.01,-0.00,-0.00,0.01
12.360,-0.00,0.00,-0.01,0.01
12.370,0.00,0.00,-0.02,0.02
12.380,0.00,0.01,0.01,0.02
12.390,-0.02,0.00,0.03,0.03
12.400,-0.01,-0.00,0.05,0.05
12.410,-0.02,0.01,0.06,0.07
12.420,-0.01,0.01,0.05,0.06
12.431,-0.00,0.00,0.02,0.02
12.441,-0.01,-0.01,0.02,0.02
12.451,-0.02,-0.01,0.02,0.03
12.461,-0.02,-0.00,-0.01,0.02
12.471,-0.00,-0.00,-0.02,0.02
12.481,0.01,-0.01,-0.00,0.02
12.491,-0.00,0.01,0.01,0.02
12.501,-0.00,-0.01,0.03,0.03
12.511,-0.00,-0.02,0.05,0.06
12.521,0.01,-0.01,0.04,0.05
12.531,0.02,-0.02,0.05,0.06
12.541,0.02,-0.05,0.05,0.07
12.552,0.02,-0.03,0.04,0.05
12.561,0.02,-0.02,0.00,0.02
12.572,0.00,-0.02,-0.01,0.02
12.581,0.01,0.00,-0.02,0.02
12.592,-0.01,0.01,0.00,0.02
12.602,-0.00,0.02,0.00,0.02
12.612,0.00,0.02,0.03,0.04
12.622,0.01,0.00,0.04,0.04
12.632,-0.00,-0.00,0.06,0.06
12.642,-0.01,-0.00,0.06,0.06
12.652,-0.02,-0.01,0.04,0.04
12.662,-0.03,-0.01,0.00,0.04
12.672,-0.03,-0.02,-0.02,0.04
12.682,-0.01,-0.04,0.01,0.04
12.692,0.03,-0.03,0.02,0.05
12.702,0.04,-0.01,0.04,0.06
12.712,0.04,0.02,0.05,0.07
12.722,0.06,0.05,0.08,0.11
12.732,0.06,0.06,0.02,0.09
12.742,0.02,0.06,-0.01,0.07
12.752,-0.04,0.04,-0.02,0.06
12.762,-0.07,0.00,0.00,0.07
12.772,-0.07,-0.05,0.04,0.10
12.783,-0.03,-0.10,0.04,0.11
12.793,0.00,-0.12,0.04,0.13
12.803,0.02,-0.10,0.01,0.11
12.813,0.03,-0.06,0.00,0.06
12.823,-0.02,-0.01,0.01,0.02
12.833,-0.02,0.02,0.04,0.05
12.843,-0.01,0.03,0.06,0.06
12.853,-0.02,0.00,0.08,0.08
12.863,-0.03,-0.01,0.07,0.07
12.873,-0.01,0.00,0.05,0.05
12.883,0.00,0.02,0.02,0.03
12.893,0.02,0.03,-0.02,0.04
12.903,0.03,0.05,-0.02,0.06
12.914,0.02,0.07,-0.00,0.08
12.923,-0.00,0.05,-0.01,0.05
12.933,-0.01,0.02,-0.03,0.04
12.944,0.00,-0.00,-0.04,0.04
12.954,0.01,-0.04,-0.04,0.05
12.964,0.01,-0.05,0.01,0.05
12.974,0.02,-0.06,0.04,0.07
12.984,0.03,-0.03,0.07,0.08
12.994,0.02,-0.01,0.05,0.06
13.004,0.01,-0.00,0.03,0.03
13.014,-0.01,-0.00,0.02,0.02
13.024,0.00,0.00,0.02,0.02
13.034,-0.00,-0.00,0.02,0.02
13.044,0.02,-0.02,0.03,0.04
13.054,0.03,-0.04,0.02,0.06
13.064,0.03,-0.03,0.01,0.04
13.074,0.00,-0.03,0.02,0.03
13.084,-0.01,0.01,0.01,0.02
13.095,-0.02,0.02,0.03,0.04
13.104,-0.02,0.01,0.02,0.03
13.115,-0.01,0.01,0.03,0.04
13.125,-0.01,-0.01,0.05,0.06
13.135,0.00,-0.02,0.05,0.05
13.145,-0.00,-0.01,0.03,0.03
13.155,-0.03,-0.00,0.03,0.04
13.165,-0.05,0.00,0.01,0.05
13.175,-0.03,0.01,-0.00,0.03
13.185,-0.02,0.01,0.02,0.03
13.195,-0.02,0.02,0.02,0.03
13.205,0.02,-0.00,0.03,0.03
13.215,0.02,-0.01,0.02,0.03
13.225,0.01,-0.03,0.02,0.03
13.235,-0.00,-0.03,0.03,0.04
13.245,-0.02,-0.01,0.01,0.02
13.255,-0.01,-0.00,0.02,0.03
13.265,0.01,0.00,0.03,0.04
13.275,0.03,0.00,0.05,0.06
13.285,0.05,-0.02,0.05,0.07
13.296,0.04,-0.02,0.03,0.06
13.305,0.03,-0.02,0.03,0.04
13.316,-0.00,-0.00,-0.01,0.01
13.326,-0.03,-0.00,-0.00,0.03
13.336,-0.04,0.01,0.01,0.04
13.346,-0.03,0.01,0.01,0.03
13.356,-0.01,-0.00,0.03,0.03
13.366,0.01,0.00,0.05,0.05
13.376,0.01,-0.02,0.02,0.03
13.386,0.01,-0.02,0.02,0.03
13.396,0.01,-0.01,0.01,0.02
13.406,0.01,-0.00,-0.01,0.01
13.416,-0.00,-0.02,0.01,0.02
13.426,-0.00,-0.02,0.03,0.04
13.436,0.00,0.02,0.06,0.07
13.446,0.03,0.03,0.06,0.08
13.456,0.07,0.06,0.03,0.10
13.466,0.07,0.05,-0.04,0.10
13.476,0.03,0.06,-0.09,0.11
13.487,-0.03,0.05,-0.09,0.11
13.497,-0.05,0.01,-0.05,0.07
13.507,-0.04,-0.03,0.01,0.05
13.517,-0.03,-0.09,0.05,0.11
13.527,-0.01,-0.11,0.07,0.13
13.537,0.00,-0.11,0.06,0.13
13.547,0.03,-0.07,0.05,0.09
13.557,-0.00,-0.03,0.04,0.05
13.567,0.00,0.01,0.04,0.04
13.577,-0.03,0.02,0.05,0.06
13.587,-0.03,0.02,0.06,0.07
13.597,-0.02,0.01,0.03,0.04
13.607,0.01,0.00,0.03,0.03
13.618,0.03,0.00,0.01,0.03
13.628,0.01,0.03,-0.00,0.03
13.638,0.01,0.04,-0.02,0.04
13.648,-0.01,0.06,-0.03,0.07
13.658,0.00,0.06,-0.06,0.08
13.668,0.01,0.05,-0.05,0.07
13.678,0.01,0.01,-0.00,0.02
13.688,-0.00,-0.01,0.02,0.03
13.698,0.01,-0.06,0.06,0.09
13.708,0.01,-0.07,0.08,0.11
13.718,0.01,-0.05,0.06,0.08
13.728,0.02,-0.01,0.02,0.03
13.738,0.00,0.02,0.01,0.03
13.748,-0.00,0.03,-0.00,0.03
13.758,0.01,0.02,-0.00,0.02
13.768,0.02,0.01,0.01,0.02
13.778,0.02,-0.03,0.01,0.04
13.788,0.02,-0.06,0.04,0.07
13.798,-0.00,-0.06,0.02,0.06
13.808,-0.01,-0.04,0.01,0.04
13.819,-0.00,-0.01,0.02,0.03
13.829,0.01,0.03,0.03,0.04
13.839,0.02,0.04,0.02,0.04
13.849,0.01,0.03,0.02,0.04
13.859,0.01,0.02,0.01,0.02
13.869,0.00,0.00,0.02,0.02
13.879,-0.03,-0.00,0.01,0.03
13.889,-0.03,0.01,0.01,0.03
13.899,-0.03,0.00,0.03,0.04
13.909,-0.02,0.01,0.03,0.04
13.919,-0.01,0.03,0.03,0.05
13.929,0.00,0.03,0.04,0.05
13.939,0.03,-0.00,0.03,0.04
13.949,0.01,-0.04,0.02,0.04
13.959,-0.01,-0.04,0.02,0.05
13.969,-0.01,-0.05,0.02,0.05
13.980,0.01,-0.04,0.01,0.04
13.989,0.03,-0.01,0.01,0.03
14.000,0.05,-0.01,0.01,0.05
14.009,0.03,-0.01,0.03,0.05
14.020,0.02,-0.00,0.02,0.03
14.030,0.02,-0.01,0.03,0.04
14.040,-0.02,-0.02,0.04,0.05
14.050,-0.02,-0.01,0.03,0.04
14.060,-0.04,0.02,0.03,0.05
14.070,-0.03,0.04,0.05,0.07
14.080,-0.03,0.01,0.02,0.04
14.090,0.00,0.00,0.00,0.00
14.100,0.03,-0.01,-0.02,0.04
14.110,0.03,-0.03,-0.02,0.05
14.120,0.03,-0.04,0.01,0.05
14.130,0.03,-0.03,0.01,0.04
14.140,0.01,-0.00,0.03,0.03
14.150,0.01,0.06,0.07,0.10
14.161,0.03,0.08,0.06,0.10
14.170,0.05,0.08,0.00,0.09
14.181,0.03,0.08,-0.03,0.09
14.191,-0.02,0.03,-0.04,0.05
14.201,-0.04,-0.02,-0.00,0.04
14.211,-0.05,-0.06,0.04,0.09
14.221,-0.03,-0.11,0.04,0.12
14.231,-0.01,-0.12,0.05,0.13
14.241,-0.01,-0.10,0.07,0.12
14.251,-0.01,-0.05,0.03,0.06
14.261,-0.03,-0.01,0.01,0.03
14.271,-0.02,0.01,0.01,0.02
14.281,-0.02,0.02,0.02,0.03
14.291,-0.00,0.02,0.02,0.03
14.301,-0.00,0.02,0.03,0.04
14.311,-0.00,0.02,0.02,0.03
14.321,-0.00,0.02,0.02,0.03
14.332,0.00,0.01,0.01,0.02
14.342,0.01,0.04,0.01,0.04
14.351,0.01,0.06,-0.00,0.06
14.362,0.02,0.06,-0.03,0.07
14.372,0.02,0.03,-0.06,0.07
14.382,-0.01,0.03,-0.04,0.05
14.392,-0.01,0.01,0.02,0.03
14.402,-0.02,-0.04,0.07,0.09
14.412,-0.00,-0.08,0.11,0.13
14.422,0.03,-0.07,0.11,0.13
14.432,0.00,-0.04,0.08,0.10
14.442,0.02,-0.01,0.02,0.03
14.452,0.01,0.03,-0.04,0.05
14.462,0.02,0.04,-0.05,0.06
14.472,0.03,0.00,-0.03,0.05
14.482,0.02,-0.02,0.01,0.03
14.492,0.00,-0.06,0.05,0.08
14.502,0.01,-0.05,0.04,0.07
14.512,0.00,-0.05,0.03,0.05
14.523,0.00,-0.01,0.02,0.02
14.533,0.01,0.01,0.00,0.02
14.543,0.01,0.02,-0.02,0.04
14.553,0.01,0.02,-0.00,0.02
14.563,0.00,0.02,0.01,0.02
14.573,-0.01,0.03,0.03,0.04
14.583,-0.01,0.01,0.05,0.05
14.593,-0.01,0.00,0.05,0.05
14.603,-0.01,-0.00,0.05,0.05
14.613,-0.02,-0.01,0.02,0.04
14.623,-0.01,-0.00,-0.02,0.02
14.633,-0.00,0.01,-0.00,0.01
14.643,0.00,0.02,-0.01,0.02
14.653,0.00,-0.01,-0.02,0.03
14.663,-0.01,-0.02,0.02,0.03
14.673,-0.02,-0.03,0.04,0.05
14.683,-0.01,-0.03,0.05,0.06
14.694,0.00,-0.03,0.05,0.06
14.704,0.02,-0.03,0.03,0.05
14.714,0.03,-0.01,0.03,0.04
14.724,0.03,0.00,0.01,0.03
14.734,0.02,0.00,0.00,0.02
14.744,0.02,0.02,-0.00,0.03
14.754,-0.00,0.01,-0.01,0.01
14.764,-0.02,-0.00,0.01,0.02
14.774,-0.03,0.01,0.01,0.03
14.784,-0.02,0.01,0.00,0.03
14.794,-0.01,0.02,0.05,0.06
14.804,-0.01,0.01,0.03,0.03
14.814,0.01,-0.02,0.01,0.02
14.824,0.00,-0.02,0.03,0.03
14.834,0.01,-0.01,0.00,0.01
14.844,0.02,-0.03,0.01,0.04
14.854,0.01,-0.03,0.02,0.04
14.865,0.01,-0.00,0.05,0.05
14.875,0.01,0.02,0.08,0.08
14.885,0.03,0.05,0.10,0.11
14.895,0.06,0.07,0.04,0.10
14.905,0.04,0.08,-0.04,0.10
14.915,-0.00,0.05,-0.07,0.09
14.925,-0.04,0.03,-0.05,0.08
14.935,-0.04,-0.03,0.01,0.05
14.945,-0.01,-0.09,0.07,0.11
14.955,-0.02,-0.15,0.10,0.18
14.965,-0.00,-0.15,0.07,0.16
14.975,-0.01,-0.10,0.05,0.11
14.985,-0.02,-0.05,0.02,0.06
14.995,-0.02,-0.00,0.01,0.03
15.005,-0.02,0.03,0.02,0.04
15.015,0.01,0.02,0.05,0.05
15.025,0.00,0.02,0.05,0.06
15.036,-0.00,0.01,0.05,0.05
15.045,-0.00,0.03,0.05,0.06
15.056,-0.01,0.02,0.03,0.03
15.066,0.00,0.02,0.01,0.03
15.076,0.02,0.04,-0.01,0.04
15.086,0.03,0.05,-0.03,0.07
15.096,0.02,0.04,-0.06,0.08
15.106,0.02,0.04,-0.05,0.07
15.116,0.00,0.00,-0.05,0.05
15.126,-0.01,-0.02,-0.00,0.03
15.136,-0.02,-0.05,0.06,0.08
15.146,-0.00,-0.06,0.06,0.09
15.156,0.02,-0.06,0.06,0.08
15.166,0.01,-0.01,0.04,0.04
15.176,-0.00,0.00,0.02,0.02
15.186,-0.01,0.02,-0.03,0.03
15.196,-0.00,0.02,-0.01,0.02
15.206,0.00,0.01,0.02,0.02
15.216,0.01,-0.03,0.05,0.06
15.227,0.02,-0.06,0.04,0.07
15.236,0.01,-0.06,0.03,0.06
15.247,0.01,-0.03,0.05,0.06
15.257,-0.01,-0.01,-0.00,0.01
15.267,-0.01,0.03,-0.04,0.05
15.277,0.00,0.04,-0.01,0.04
15.287,-0.01,0.04,0.01,0.04
15.297,0.00,0.04,0.02,0.04
15.307,0.00,0.01,0.06,0.06
15.317,0.01,-0.01,0.05,0.05
15.327,0.00,-0.01,0.02,0.03
15.337,0.01,-0.01,0.01,0.02
15.347,-0.01,-0.00,-0.00,0.01
15.357,-0.02,-0.00,-0.01,0.03
15.367,-0.01,0.00,-0.03,0.03
15.377,-0.00,0.01,0.01,0.02
15.387,-0.01,-0.01,0.04,0.04
15.398,-0.01,-0.04,0.02,0.04
15.408,0.02,-0.02,0.03,0.04
15.418,0.02,-0.02,0.04,0.04
15.428,-0.00,-0.02,0.01,0.03
15.438,0.01,-0.01,0.01,0.01
15.448,0.01,0.01,0.04,0.04
15.458,0.02,-0.01,0.03,0.04
15.468,0.01,-0.01,0.06,0.06
15.478,0.02,-0.03,0.06,0.07
15.488,0.01,-0.03,0.03,0.04
15.498,0.03,-0.00,0.03,0.05
15.508,0.01,0.01,-0.00,0.01
15.518,0.01,0.00,-0.02,0.02
15.528,0.00,0.01,-0.02,0.02
15.538,-0.01,0.01,0.01,0.02
15.548,-0.01,0.01,0.03,0.04
15.558,-0.02,0.02,0.05,0.06
15.568,-0.01,0.02,0.03,0.04
15.579,-0.02,0.01,0.04,0.05
15.589,-0.02,-0.02,0.02,0.03
15.599,-0.01,-0.04,-0.02,0.05
15.609,0.01,-0.04,0.01,0.04
15.619,0.01,-0.05,0.04,0.07
15.629,0.01,-0.02,0.05,0.06
15.639,0.02,0.02,0.06,0.07
15.649,0.04,0.07,0.07,0.10
15.659,0.06,0.09,0.04,0.11
15.669,0.04,0.08,-0.06,0.11
15.679,-0.02,0.04,-0.08,0.09
15.689,-0.06,-0.01,-0.04,0.07
15.699,-0.04,-0.05,0.00,0.06
15.709,-0.01,-0.09,0.06,0.11
15.719,-0.01,-0.12,0.08,0.14
15.729,0.00,-0.11,0.08,0.13
15.739,0.01,-0.07,0.05,0.09
15.750,-0.01,-0.04,0.03,0.05
15.759,-0.02,0.01,0.04,0.05
15.770,-0.02,0.04,0.04,0.06
15.780,-0.01,0.04,0.03,0.05
15.790,-0.00,0.02,0.02,0.02
15.800,0.00,0.01,0.01,0.02
15.810,0.01,0.02,0.03,0.04
15.820,0.02,0.03,0.02,0.04
15.830,0.00,0.03,0.03,0.05
15.840,0.01,0.05,0.03,0.06
15.850,0.01,0.05,-0.02,0.06
15.860,0.02,0.04,-0.04,0.06
15.870,-0.00,0.02,-0.04,0.04
15.880,-0.01,-0.02,-0.03,0.03
15.890,-0.01,-0.07,0.00,0.07
15.900,0.01,-0.08,0.05,0.09
15.910,-0.01,-0.07,0.06,0.09
15.920,-0.01,-0.03,0.05,0.06
15.931,0.00,0.01,0.04,0.04
15.941,-0.01,0.02,0.02,0.03
15.951,-0.01,0.01,0.02,0.02
15.961,0.00,-0.00,0.03,0.03
15.971,0.02,-0.02,0.03,0.04
15.981,0.01,-0.04,0.03,0.05
15.991,-0.01,-0.05,0.00,0.05
16.001,-0.03,-0.02,0.01,0.04
16.011,-0.02,0.02,0.00,0.03
16.021,-0.01,0.02,-0.00,0.02
16.031,0.02,0.02,0.00,0.02
16.041,0.02,0.02,0.02,0.03
16.051,0.02,0.01,0.05,0.05
16.061,0.02,0.01,0.03,0.04
16.071,-0.01,-0.00,0.03,0.03
16.081,-0.03,-0.02,0.03,0.05
16.091,-0.03,-0.00,0.04,0.05
16.101,-0.03,-0.00,0.02,0.03
16.112,-0.01,0.00,-0.01,0.01
16.122,-0.01,0.01,-0.02,0.02
16.132,0.01,0.01,-0.00,0.01
16.142,0.02,-0.02,-0.00,0.03
16.152,0.03,-0.02,0.02,0.04
16.162,0.02,-0.04,0.05,0.07
16.172,0.00,-0.04,0.04,0.06
16.182,-0.00,-0.03,0.03,0.04
16.192,-0.01,-0.02,-0.00,0.02
16.202,0.01,-0.00,-0.02,0.02
16.212,0.00,0.01,-0.01,0.02
16.222,-0.00,0.01,0.01,0.02
16.232,0.01,-0.00,0.03,0.04
16.242,0.03,-0.02,0.05,0.06
16.252,0.02,-0.02,0.05,0.06
16.262,0.02,-0.03,0.04,0.05
16.273,0.02,-0.01,0.01,0.02
16.283,-0.00,0.00,-0.02,0.02
16.293,-0.01,0.02,-0.04,0.04
16.303,-0.02,0.02,-0.02,0.03
16.313,-0.01,0.01,0.00,0.01
16.323,-0.01,0.00,0.03,0.03
16.333,-0.02,-0.01,0.08,0.08
16.343,-0.02,-0.03,0.08,0.09
16.353,-0.01,-0.03,0.03,0.05
16.363,-0.01,-0.02,0.01,0.03
16.373,-0.01,-0.00,-0.03,0.03
16.383,-0.01,-0.01,-0.04,0.04
16.393,-0.00,-0.01,-0.01,0.01
16.403,0.01,-0.01,0.03,0.04
16.413,0.02,0.00,0.07,0.08
16.423,0.02,0.03,0.09,0.10
16.434,0.04,0.05,0.09,0.11
16.443,0.05,0.07,0.02,0.09
16.454,0.02,0.07,-0.06,0.09
16.464,-0.01,0.06,-0.10,0.12
16.474,-0.06,0.02,-0.08,0.10
16.484,-0.05,-0.04,-0.00,0.06
16.494,-0.03,-0.09,0.06,0.11
16.504,0.01,-0.12,0.09,0.15
16.514,0.03,-0.12,0.08,0.15
16.524,0.03,-0.08,0.07,0.11
16.534,-0.02,-0.02,0.05,0.06
16.544,-0.05,0.00,0.03,0.06
16.554,-0.04,0.02,0.00,0.05
16.564,-0.02,0.03,0.02,0.04
16.574,-0.00,0.03,0.03,0.04
16.584,0.02,0.01,0.02,0.03
16.594,0.03,0.01,0.01,0.03
16.604,0.01,0.02,0.02,0.03
16.614,-0.00,0.03,0.03,0.04
16.624,-0.01,0.06,0.03,0.06
16.635,-0.02,0.06,-0.02,0.07
16.645,-0.02,0.05,-0.03,0.06
16.655,-0.02,0.03,-0.04,0.05
16.665,0.01,-0.02,-0.02,0.03
16.675,0.03,-0.05,0.04,0.07
16.685,0.02,-0.07,0.09,0.11
16.695,0.01,-0.05,0.08,0.10
16.705,0.00,-0.04,0.06,0.07
16.715,-0.02,0.00,0.02,0.03
16.725,-0.03,0.02,0.02,0.04
16.735,-0.01,0.01,-0.00,0.02
16.745,0.02,0.00,-0.01,0.02
16.755,0.04,-0.01,0.04,0.06
16.765,0.04,-0.05,0.04,0.07
16.775,0.02,-0.07,0.02,0.08
16.785,-0.01,-0.05,0.02,0.05
16.795,-0.02,-0.01,0.02,0.03
16.805,-0.02,0.01,0.00,0.02
16.816,-0.03,0.03,0.02,0.04
16.826,-0.03,0.02,0.03,0.04
16.836,-0.01,0.01,0.03,0.03
16.846,0.00,0.01,0.04,0.04
16.856,0.00,-0.00,0.05,0.05
16.866,0.00,-0.01,0.04,0.04
16.876,-0.00,-0.01,0.03,0.03
16.886,-0.02,0.01,0.02,0.03
16.896,-0.01,0.02,0.03,0.04
16.906,-0.01,0.01,0.01,0.02
16.916,-0.00,0.01,-0.01,0.01
16.926,-0.01,-0.02,-0.00,0.02
16.936,-0.01,-0.04,0.01,0.04
16.946,0.01,-0.04,0.01,0.04
16.956,0.01,-0.04,0.03,0.05
16.966,0.01,-0.01,0.04,0.04
16.976,0.01,-0.00,0.04,0.04
16.986,0.01,-0.01,0.03,0.03
16.997,0.01,0.01,0.03,0.04
17.007,0.00,-0.00,0.02,0.02
17.017,-0.00,-0.02,0.03,0.04
17.027,-0.01,0.01,0.03,0.03
17.037,0.00,0.01,0.02,0.02
17.047,0.02,0.01,0.03,0.03
17.057,0.02,0.01,0.02,0.03
17.067,0.03,-0.00,0.03,0.04
17.077,0.01,-0.00,0.02,0.03
17.087,-0.01,-0.01,0.02,0.02
17.097,0.00,-0.01,0.00,0.01
17.107,-0.01,-0.00,0.01,0.02
17.117,-0.02,-0.01,0.02,0.03
17.127,-0.03,-0.02,0.03,0.05
17.138,-0.03,0.00,0.02,0.03
17.147,-0.02,0.03,-0.00,0.03
17.158,0.01,0.02,-0.03,0.04
17.168,0.01,-0.00,-0.06,0.06
17.178,0.01,-0.02,-0.04,0.05
17.188,0.03,-0.03,-0.02,0.04
17.198,0.01,-0.00,0.03,0.03
17.208,0.01,0.04,0.04,0.05
17.218,0.03,0.09,0.07,0.12
17.228,0.05,0.12,0.05,0.14
17.238,0.06,0.08,-0.01,0.10
17.248,0.03,0.06,-0.05,0.09
17.258,-0.01,0.01,-0.03,0.04
17.268,-0.04,-0.05,0.01,0.06
17.278,-0.04,-0.08,0.04,0.10
17.288,-0.03,-0.10,0.07,0.13
17.298,-0.01,-0.11,0.07,0.13
17.308,-0.01,-0.08,0.03,0.08
17.318,-0.03,-0.06,0.02,0.07
17.328,-0.01,0.01,0.04,0.04
17.339,-0.00,0.02,0.04,0.05
17.349,0.01,-0.00,0.06,0.06
17.359,0.00,0.00,0.04,0.04
17.369,0.00,0.01,0.03,0.03
17.379,0.02,0.04,-0.01,0.04
17.389,0.02,0.05,-0.00,0.05
17.399,0.03,0.06,-0.01,0.07
17.409,0.01,0.06,-0.00,0.06
17.419,-0.00,0.06,-0.01,0.07
17.429,0.01,0.05,-0.03,0.06
17.439,0.01,0.02,-0.04,0.05
17.449,0.01,-0.02,-0.03,0.04
17.459,0.01,-0.04,0.02,0.04
17.469,0.01,-0.05,0.05,0.07
17.479,0.01,-0.04,0.07,0.08
17.489,0.02,-0.02,0.08,0.08
17.499,0.01,-0.00,0.04,0.04
17.509,-0.02,0.01,0.02,0.03
17.520,-0.02,-0.01,0.01,0.03
17.530,0.01,-0.03,-0.01,0.03
17.540,0.03,-0.03,-0.01,0.04
17.550,0.03,-0.04,0.01,0.05
17.560,0.01,-0.04,0.00,0.04
17.570,0.01,-0.02,0.00,0.02
17.580,0.00,-0.01,0.02,0.02
17.590,-0.01,0.02,0.04,0.05
17.600,-0.01,0.03,0.04,0.05
17.610,-0.02,0.03,0.03,0.04
17.620,-0.01,0.03,0.02,0.03
17.630,-0.01,0.01,0.02,0.02
17.640,0.01,0.02,0.01,0.03
17.650,0.01,0.03,0.02,0.03
17.660,0.01,0.03,0.02,0.04
17.670,-0.00,0.03,0.03,0.04
17.680,-0.01,0.01,0.03,0.04
17.690,-0.00,-0.00,0.05,0.05
17.701,-0.01,-0.02,0.03,0.03
17.711,-0.00,-0.02,0.02,0.03
17.721,-0.01,-0.03,0.02,0.04
17.731,-0.02,-0.03,0.01,0.03
17.741,0.00,-0.01,-0.00,0.01
17.751,0.02,-0.01,0.00,0.02
17.761,0.02,-0.00,0.01,0.02
17.771,0.03,-0.01,0.05,0.06
17.781,0.03,-0.02,0.06,0.07
17.791,0.04,-0.02,0.07,0.09
17.801,0.04,-0.01,0.05,0.06
17.811,0.02,-0.03,0.04,0.05
17.821,0.03,0.01,-0.01,0.03
17.831,0.00,0.01,-0.03,0.03
17.841,-0.00,0.00,-0.03,0.03
17.851,-0.01,0.00,-0.02,0.02
17.862,-0.01,-0.01,0.00,0.01
17.872,-0.01,0.00,0.02,0.03
17.882,-0.03,0.00,0.03,0.04
17.892,-0.03,-0.00,0.03,0.04
17.902,-0.02,0.01,0.04,0.05
17.912,-0.03,0.01,0.03,0.05
17.922,-0.03,-0.01,0.02,0.03
17.932,-0.03,-0.01,0.01,0.03
17.942,0.01,-0.03,-0.01,0.03
17.952,0.02,-0.05,-0.01,0.05
17.962,0.03,-0.03,0.01,0.04
17.972,0.04,0.01,0.03,0.05
17.982,0.05,0.05,0.04,0.08
17.992,0.05,0.10,0.07,0.13
18.002,0.05,0.09,0.04,0.11
18.012,0.04,0.07,-0.01,0.08
18.022,0.02,0.04,-0.03,0.05
18.032,-0.01,-0.01,-0.04,0.04
18.043,-0.03,-0.07,-0.01,0.07
18.052,-0.01,-0.09,0.04,0.10
18.063,-0.01,-0.10,0.05,0.11
18.073,-0.01,-0.10,0.05,0.11
18.083,-0.01,-0.06,0.05,0.08
18.093,-0.03,-0.04,0.03,0.06
18.103,-0.02,-0.01,0.04,0.05
18.113,-0.02,0.01,0.05,0.05
18.123,-0.00,-0.00,0.04,0.04
18.133,0.02,0.01,0.02,0.03
18.143,0.02,0.02,0.00,0.03
18.153,0.01,0.05,-0.01,0.05
18.163,-0.01,0.06,0.02,0.06
18.173,-0.02,0.04,0.01,0.05
18.183,-0.01,0.05,0.01,0.05
18.193,0.01,0.05,0.02,0.05
18.203,0.02,0.00,-0.01,0.03
18.213,0.02,-0.01,-0.03,0.04
18.224,-0.00,-0.02,-0.04,0.04
18.234,-0.02,-0.02,-0.00,0.03
18.244,-0.01,-0.02,0.02,0.03
18.254,0.00,-0.01,0.05,0.05
18.264,0.01,-0.02,0.06,0.06
18.274,0.02,-0.01,0.06,0.06
18.284,0.03,-0.00,0.06,0.07
18.294,0.03,-0.01,0.04,0.05
18.304,0.03,0.00,0.01,0.03
18.314,0.02,-0.01,-0.00,0.02
18.324,-0.01,-0.01,0.01,0.02
18.334,-0.01,-0.03,-0.00,0.04
18.344,-0.01,-0.04,0.01,0.04
18.354,-0.01,-0.01,0.04,0.05
18.364,0.02,-0.01,0.06,0.06
18.374,0.00,0.00,0.05,0.05
18.384,0.01,0.01,0.04,0.04
18.395,0.00,0.02,0.03,0.03
18.405,0.00,0.02,0.02,0.03
18.415,-0.01,0.00,0.03,0.03
18.425,-0.01,0.01,0.03,0.04
18.435,-0.02,0.01,0.04,0.05
18.445,-0.02,0.00,0.04,0.05
18.455,-0.02,0.00,0.03,0.03
18.465,-0.02,-0.00,-0.00,0.02
18.475,0.01,-0.00,-0.02,0.02
18.485,-0.00,-0.01,-0.02,0.02
18.495,0.00,-0.00,0.01,0.01
18.505,0.00,-0.01,0.02,0.02
18.515,0.02,-0.02,0.04,0.04
18.525,0.00,-0.01,0.05,0.05
18.535,-0.01,-0.01,0.05,0.05
18.546,-0.00,-0.01,0.05,0.05
18.555,0.02,0.02,0.05,0.05
18.566,0.03,-0.00,0.03,0.04
18.576,0.05,-0.00,0.03,0.06
18.586,0.03,-0.00,0.02,0.04
18.596,0.01,-0.01,0.02,0.03
18.606,-0.00,-0.01,0.01,0.01
18.616,-0.01,-0.00,-0.01,0.01
18.626,-0.01,-0.00,0.01,0.02
18.636,-0.01,-0.01,0.02,0.02
18.646,-0.00,-0.00,0.01,0.01
18.656,-0.00,0.01,0.00,0.01
18.666,0.00,0.02,0.04,0.05
18.676,-0.02,0.01,0.05,0.05
18.686,-0.02,-0.02,0.07,0.07
18.696,-0.01,-0.02,0.06,0.07
18.706,0.01,-0.01,0.06,0.06
18.716,0.02,-0.03,0.05,0.06
18.726,0.04,-0.04,0.06,0.09
18.737,0.06,0.02,0.14,0.15
18.747,0.11,0.11,0.27,0.31
18.756,0.19,0.20,0.36,0.46
18.767,0.24,0.22,0.30,0.44
18.777,0.17,0.16,0.08,0.25
18.787,0.02,0.11,-0.11,0.16
18.797,-0.15,0.05,-0.20,0.26
18.807,-0.21,-0.03,-0.26,0.34
18.817,-0.16,-0.10,-0.25,0.31
18.827,-0.04,-0.12,-0.17,0.21
18.837,0.09,-0.08,-0.02,0.13
18.847,0.15,-0.00,0.11,0.19
18.857,0.17,0.02,0.18,0.25
18.867,0.17,-0.04,0.18,0.25
18.877,0.07,-0.10,0.08,0.15
18.887,-0.07,-0.15,0.01,0.17
18.897,-0.21,-0.13,-0.01,0.24
18.907,-0.28,-0.07,0.03,0.29
18.917,-0.27,-0.02,0.05,0.28
18.928,-0.27,0.03,0.03,0.27
18.938,-0.23,0.07,-0.01,0.24
18.948,-0.15,0.05,-0.08,0.17
18.958,-0.05,0.00,-0.16,0.17
18.968,0.00,-0.02,-0.19,0.19
18.978,-0.05,-0.04,-0.15,0.17
18.988,-0.13,-0.06,-0.10,0.17
18.998,-0.13,-0.06,0.00,0.14
19.008,-0.06,-0.02,0.11,0.13
19.018,-0.04,0.00,0.17,0.17
19.028,-0.01,0.05,0.19,0.20
19.038,0.05,0.11,0.18,0.21
19.048,0.12,0.11,0.06,0.18
19.058,0.17,0.08,-0.03,0.19
19.068,0.17,0.05,-0.10,0.20
19.078,0.14,0.02,-0.12,0.19
19.088,0.11,-0.02,-0.12,0.16
19.099,0.05,-0.07,-0.09,0.12
19.109,0.04,-0.11,-0.05,0.13
19.119,0.04,-0.16,0.01,0.16
19.129,0.06,-0.16,0.04,0.17
19.139,0.08,-0.15,0.12,0.20
19.149,0.10,-0.09,0.15,0.20
19.159,0.08,-0.01,0.13,0.16
19.169,0.07,0.06,0.05,0.11
19.179,0.02,0.09,-0.02,0.09
19.189,-0.05,0.08,-0.02,0.10
19.199,-0.10,0.06,0.03,0.12
19.209,-0.10,0.02,0.08,0.13
19.219,-0.08,0.01,0.07,0.11
19.229,-0.14,0.03,0.05,0.15
19.239,-0.15,0.07,0.02,0.16
19.249,-0.13,0.08,-0.03,0.15
19.260,-0.14,0.07,-0.11,0.19
19.269,-0.15,0.03,-0.12,0.19
19.279,-0.14,0.00,-0.06,0.16
19.290,-0.09,-0.02,-0.02,0.10
19.300,-0.03,-0.02,-0.01,0.04
19.310,0.04,0.01,-0.05,0.07
19.320,0.09,0.03,-0.01,0.09
19.330,0.07,0.02,0.08,0.11
19.340,0.04,-0.02,0.16,0.16
19.350,0.07,-0.05,0.19,0.21
19.360,0.12,-0.08,0.16,0.21
19.370,0.13,-0.06,0.11,0.18
19.380,0.14,0.03,-0.03,0.15
19.390,0.13,0.12,-0.17,0.24
19.400,-0.03,0.11,-0.27,0.30
19.410,-0.10,0.08,-0.19,0.23
19.420,-0.09,0.08,-0.02,0.12
19.431,-0.05,0.06,0.05,0.10
19.440,0.00,0.07,0.05,0.09
19.451,0.09,0.04,0.03,0.10
19.461,0.08,-0.09,0.04,0.13
19.471,0.01,-0.18,0.03,0.18
19.481,0.09,-0.13,0.09,0.18
19.491,0.15,-0.01,0.21,0.26
19.501,0.10,0.03,0.26,0.28
19.511,-0.02,0.00,0.21,0.22
19.521,-0.09,-0.02,0.15,0.18
19.531,-0.16,-0.06,0.04,0.18
19.541,-0.18,-0.11,-0.04,0.21
19.551,-0.16,-0.14,-0.14,0.25
19.561,-0.11,-0.16,-0.09,0.21
19.571,-0.07,-0.11,0.02,0.13
19.581,-0.03,-0.03,0.07,0.08
19.591,-0.09,-0.02,0.09,0.12
19.601,-0.13,0.02,0.12,0.18
19.611,-0.19,0.05,0.10,0.23
19.622,-0.23,0.05,0.06,0.24
19.632,-0.22,0.06,0.05,0.23
19.642,-0.21,0.09,0.03,0.23
19.652,-0.15,0.10,0.06,0.19
19.662,-0.08,0.17,0.07,0.20
19.672,0.01,0.22,-0.00,0.22
19.682,0.06,0.20,-0.08,0.22
19.692,0.01,0.10,-0.11,0.15
19.702,-0.04,-0.01,-0.08,0.09
19.712,0.01,-0.04,0.00,0.05
19.722,0.16,-0.01,0.02,0.16
19.732,0.26,0.02,-0.03,0.26
19.742,0.24,0.02,-0.02,0.25
19.752,0.15,-0.03,0.03,0.16
19.762,0.08,-0.07,0.12,0.16
19.772,0.03,-0.12,0.15,0.19
19.782,0.04,-0.12,0.11,0.17
19.792,0.10,-0.12,0.06,0.16
19.802,0.12,-0.11,0.02,0.16
19.813,0.11,-0.12,0.05,0.16
19.823,0.07,-0.14,0.03,0.16
19.833,0.09,-0.16,0.06,0.19
19.843,0.12,-0.15,0.06,0.20
19.853,0.14,-0.10,0.03,0.18
19.863,0.15,-0.06,0.03,0.17
19.873,0.13,0.01,0.03,0.14
19.883,0.11,0.07,-0.05,0.15
19.893,0.08,0.11,-0.15,0.20
19.903,0.06,0.18,-0.13,0.22
19.913,0.05,0.21,-0.06,0.22
19.923,0.06,0.16,-0.01,0.17
19.933,0.04,0.08,0.08,0.12
19.943,0.06,0.01,0.11,0.13
19.953,0.07,-0.06,0.10,0.14
19.964,0.03,-0.04,0.05,0.07
19.974,-0.00,0.00,0.00,0.00
19.984,-0.03,0.05,-0.02,0.06
19.994,-0.08,0.09,-0.01,0.12
20.004,-0.11,0.15,0.07,0.20
20.014,-0.14,0.15,0.13,0.24
20.024,-0.13,0.07,0.12,0.19
20.034,-0.07,-0.02,0.05,0.09
20.044,-0.02,-0.10,-0.07,0.12
20.054,0.02,-0.10,-0.12,0.16
20.064,0.06,-0.04,-0.09,0.12
20.074,0.08,0.01,-0.00,0.08
20.084,0.07,0.03,0.14,0.16
20.094,0.08,0.02,0.19,0.20
20.104,0.06,-0.03,0.13,0.15
20.114,0.02,-0.01,0.02,0.03
20.124,-0.06,-0.02,-0.08,0.10
20.135,-0.14,-0.02,-0.11,0.18
20.144,-0.19,-0.07,-0.05,0.21
20.155,-0.17,-0.11,0.02,0.20
20.165,-0.11,-0.09,0.10,0.18
20.175,-0.08,-0.08,0.12,0.16
20.185,-0.03,-0.04,0.11,0.13
20.195,0.03,0.01,0.11,0.12
20.205,0.06,0.05,0.10,0.12
20.215,0.06,0.08,0.02,0.10
20.225,0.01,0.07,-0.07,0.09
20.235,-0.03,0.02,-0.14,0.14
20.245,-0.02,-0.01,-0.14,0.14
20.255,-0.03,-0.07,-0.06,0.10
20.265,-0.02,-0.09,0.08,0.12
20.275,0.05,-0.09,0.18,0.21
20.285,0.10,-0.07,0.15,0.19
20.295,0.09,-0.02,0.05,0.10
20.305,0.03,0.03,-0.03,0.05
20.316,0.02,0.06,-0.03,0.07
20.325,0.00,0.03,0.00,0.03
20.336,-0.01,0.02,0.07,0.07
20.346,0.04,0.02,0.10,0.12
20.356,0.07,-0.01,0.05,0.09
20.366,0.03,-0.02,-0.08,0.09
20.376,-0.01,-0.04,-0.12,0.13
20.386,-0.03,-0.01,-0.00,0.03
20.396,-0.01,-0.00,0.16,0.16
20.406,0.06,-0.02,0.19,0.20
20.416,0.09,0.01,0.10,0.14
20.426,0.05,0.04,-0.01,0.07
20.436,-0.03,0.05,-0.10,0.12
20.446,-0.09,0.03,-0.11,0.15
20.456,-0.13,-0.03,0.02,0.14
20.466,-0.04,-0.16,0.54,0.57
20.476,-0.08,-0.15,0.50,0.53
20.486,0.01,-0.00,0.19,0.19
20.496,-0.04,0.15,-0.24,0.28
20.507,-0.23,0.14,-0.79,0.83
20.517,-0.28,0.12,-0.84,0.89
20.527,-0.12,0.14,-0.44,0.48
20.537,0.06,0.08,0.06,0.12
