time,ax,ay,az,atotal
0.000,0.30,0.02,0.76,0.81
0.010,0.39,-0.10,0.58,0.70
0.020,0.21,-0.29,0.31,0.47
0.030,0.07,-0.26,0.11,0.29
0.040,-0.03,-0.06,-0.11,0.13
0.050,-0.09,0.08,-0.28,0.30
0.060,-0.10,0.06,-0.30,0.32
0.071,-0.07,0.03,-0.09,0.12
0.081,-0.01,-0.02,0.15,0.15
0.091,0.02,-0.06,0.24,0.25
0.101,0.05,-0.03,0.18,0.19
0.111,0.05,-0.00,0.04,0.07
0.121,0.02,0.05,-0.10,0.12
0.131,0.02,0.06,-0.13,0.14
0.141,0.00,0.05,-0.07,0.08
0.151,0.01,0.02,0.07,0.08
0.161,0.00,0.00,0.13,0.13
0.171,0.02,-0.01,0.09,0.09
0.181,0.04,0.01,0.02,0.04
0.191,0.08,0.04,-0.02,0.09
0.201,0.08,0.05,-0.05,0.11
0.211,0.05,0.03,-0.07,0.09
0.221,0.04,0.00,-0.05,0.07
0.232,0.06,-0.01,-0.01,0.06
0.241,0.07,-0.01,0.01,0.07
0.252,0.07,-0.03,0.04,0.08
0.262,0.05,-0.05,0.05,0.09
0.272,0.05,-0.06,0.05,0.09
0.282,0.07,-0.05,0.05,0.10
0.292,0.05,-0.07,0.02,0.09
0.302,0.02,-0.08,0.01,0.09
0.312,0.01,-0.06,0.00,0.06
0.322,0.02,-0.04,-0.02,0.05
0.332,0.02,-0.02,-0.03,0.04
0.342,0.02,0.01,-0.00,0.02
0.352,0.02,0.04,0.03,0.05
0.362,0.02,0.04,0.05,0.06
0.372,0.02,0.03,0.04,0.05
0.382,0.03,0.02,0.05,0.07
0.392,0.04,0.02,0.06,0.07
0.402,0.03,-0.01,0.02,0.04
0.412,0.03,-0.02,-0.02,0.04
0.423,0.04,-0.01,-0.04,0.06
0.433,0.03,0.01,-0.02,0.04
0.443,0.03,0.01,-0.00,0.03
0.453,0.02,0.01,0.01,0.03
0.463,0.03,-0.01,0.01,0.03
0.473,0.03,-0.02,0.03,0.05
0.483,0.01,-0.03,0.03,0.04
0.493,0.01,-0.04,0.01,0.04
0.503,0.01,-0.04,-0.01,0.04
0.513,-0.00,-0.05,-0.02,0.06
0.523,0.00,-0.04,0.02,0.04
0.533,-0.02,-0.02,0.06,0.06
0.543,-0.01,0.00,0.10,0.10
0.553,0.04,0.01,0.09,0.10
0.563,0.07,0.03,0.07,0.11
0.573,0.10,0.07,0.01,0.13
0.583,0.10,0.10,-0.08,0.17
0.594,0.10,0.10,-0.08,0.16
0.604,0.07,0.08,-0.09,0.14
0.614,0.03,0.01,-0.04,0.05
0.624,0.01,-0.06,0.02,0.07
0.634,-0.00,-0.13,0.07,0.14
0.644,-0.03,-0.17,0.05,0.18
0.654,-0.01,-0.16,0.04,0.16
0.664,0.01,-0.09,0.05,0.10
0.674,0.01,-0.03,0.02,0.04
0.684,-0.00,-0.00,0.02,0.02
0.694,-0.00,0.00,0.03,0.03
0.704,0.02,-0.00,0.04,0.04
0.714,0.04,-0.00,0.05,0.06
0.724,0.04,-0.02,0.02,0.05
0.735,0.04,-0.01,0.02,0.04
0.744,0.03,0.01,0.00,0.03
0.754,0.02,0.01,0.00,0.02
0.765,0.00,0.03,-0.02,0.04
0.775,0.03,0.03,-0.03,0.05
0.785,0.03,0.05,-0.02,0.06
0.795,0.05,0.04,-0.00,0.07
0.805,0.05,0.03,0.01,0.05
0.815,0.07,0.02,0.03,0.08
0.825,0.06,0.01,0.01,0.06
0.835,0.06,0.01,0.00,0.06
0.845,0.03,0.02,0.00,0.03
0.855,0.03,0.00,0.02,0.03
0.865,0.01,-0.01,0.00,0.01
0.875,0.01,-0.02,0.01,0.03
0.885,0.01,-0.06,0.02,0.07
0.895,0.02,-0.08,0.02,0.08
0.905,0.03,-0.08,0.03,0.09
0.915,0.01,-0.06,0.04,0.07
0.925,0.02,-0.05,0.06,0.08
0.936,0.01,-0.02,0.05,0.05
0.945,-0.00,-0.01,0.03,0.03
0.956,0.00,-0.02,-0.00,0.02
0.966,0.02,-0.02,-0.02,0.03
0.976,0.04,-0.01,-0.00,0.04
0.986,0.02,0.01,-0.00,0.02
0.996,0.02,0.02,0.03,0.04
1.006,0.03,0.01,0.03,0.04
1.016,0.03,0.00,0.06,0.06
1.026,0.03,-0.01,0.05,0.06
1.036,0.02,-0.02,0.03,0.04
1.046,0.00,-0.03,0.02,0.04
1.056,0.01,-0.03,0.01,0.03
1.066,0.01,0.00,-0.01,0.02
1.076,0.01,0.01,-0.00,0.01
1.086,0.03,0.03,0.01,0.04
1.096,0.03,0.03,0.01,0.05
1.106,0.05,0.03,0.05,0.08
1.116,0.02,-0.00,0.04,0.04
1.127,-0.01,-0.02,0.00,0.03
1.137,-0.03,-0.07,0.01,0.07
1.147,-0.03,-0.06,0.01,0.07
1.157,-0.01,-0.05,0.04,0.06
1.167,-0.01,-0.05,0.04,0.06
1.177,0.02,-0.04,0.05,0.07
1.187,0.08,-0.02,0.07,0.11
1.197,0.11,0.03,0.04,0.12
1.207,0.10,0.08,-0.05,0.13
1.217,0.06,0.07,-0.06,0.12
1.227,0.02,0.07,-0.04,0.08
1.237,-0.01,0.02,-0.01,0.02
1.247,0.00,-0.04,0.04,0.06
1.257,0.01,-0.10,0.04,0.11
1.268,-0.01,-0.13,0.02,0.13
1.277,-0.00,-0.12,0.02,0.12
1.288,0.00,-0.08,0.01,0.08
1.298,-0.02,-0.04,0.01,0.04
1.308,-0.02,-0.01,0.03,0.04
1.318,-0.03,0.01,0.06,0.07
1.328,0.01,-0.03,0.06,0.07
1.338,0.02,-0.03,0.02,0.05
1.348,0.03,-0.05,0.02,0.06
1.358,0.04,-0.05,0.02,0.07
1.368,0.04,-0.03,0.02,0.06
1.378,0.02,-0.02,-0.01,0.03
1.388,-0.01,-0.00,-0.00,0.01
1.398,-0.02,0.03,-0.01,0.03
1.408,-0.03,0.03,-0.00,0.05
1.418,-0.04,0.05,0.03,0.07
1.428,-0.03,0.06,0.08,0.10
1.438,-0.01,0.05,0.06,0.08
1.448,-0.02,0.06,0.03,0.07
1.458,-0.07,0.03,-0.01,0.08
1.468,-0.07,0.01,-0.02,0.07
1.479,0.02,-0.02,-0.01,0.03
1.489,0.09,0.01,-0.02,0.09
1.499,0.06,0.03,-0.03,0.07
1.509,0.04,0.02,-0.01,0.05
1.519,0.13,-0.01,-0.02,0.13
1.529,0.15,-0.03,0.03,0.16
1.539,0.16,-0.03,0.07,0.17
1.549,0.15,-0.06,0.06,0.17
1.559,0.14,-0.07,0.01,0.15
1.569,0.09,-0.07,0.00,0.11
1.579,0.05,-0.06,0.02,0.08
1.589,0.01,-0.05,0.02,0.05
1.599,-0.04,-0.06,-0.02,0.08
1.609,-0.10,-0.05,-0.03,0.12
1.619,-0.12,-0.04,0.03,0.13
1.629,-0.12,-0.04,0.06,0.14
1.640,-0.10,-0.02,0.09,0.14
1.650,-0.08,-0.01,0.05,0.09
1.660,-0.06,-0.01,0.05,0.07
1.670,-0.02,-0.01,0.05,0.06
1.680,-0.00,0.02,0.03,0.04
1.690,0.03,0.03,0.03,0.05
1.700,0.06,0.03,-0.00,0.07
1.710,0.09,0.05,-0.03,0.11
1.720,0.08,0.04,-0.03,0.10
1.730,0.07,0.02,-0.01,0.07
1.740,0.05,0.05,0.02,0.08
1.750,0.02,0.04,0.02,0.06
1.760,0.01,0.01,0.01,0.01
1.770,-0.00,-0.03,0.02,0.03
1.780,-0.02,-0.05,0.02,0.06
1.790,-0.01,-0.06,0.01,0.06
1.801,0.01,-0.07,0.03,0.08
1.811,0.04,-0.03,0.04,0.06
1.821,0.06,-0.01,0.08,0.10
1.831,0.09,0.01,0.02,0.09
1.841,0.09,0.04,-0.03,0.11
1.851,0.08,0.04,-0.03,0.10
1.861,0.06,0.01,-0.02,0.06
1.871,0.02,-0.03,-0.01,0.04
1.881,0.01,-0.07,0.00,0.08
1.891,0.00,-0.11,0.04,0.12
1.901,-0.04,-0.13,0.03,0.14
1.911,-0.06,-0.11,0.05,0.13
1.921,-0.07,-0.06,0.06,0.11
1.931,-0.06,-0.02,0.05,0.08
1.941,-0.07,0.02,0.06,0.09
1.951,-0.06,0.04,0.05,0.08
1.961,-0.04,0.05,0.02,0.06
1.971,-0.01,0.07,-0.02,0.07
1.982,0.01,0.06,0.00,0.06
1.992,0.04,0.04,0.00,0.05
2.002,0.04,0.00,0.03,0.05
2.012,0.06,0.00,0.05,0.08
2.022,0.05,-0.01,0.07,0.08
2.032,0.04,-0.02,0.02,0.05
2.042,0.05,-0.01,-0.01,0.05
2.052,0.06,-0.01,-0.03,0.06
2.062,0.06,-0.02,-0.02,0.07
2.072,0.08,-0.02,-0.01,0.08
2.082,0.06,-0.01,0.03,0.07
2.092,0.04,-0.02,0.03,0.05
2.102,0.04,-0.03,0.07,0.09
2.112,0.03,-0.03,0.04,0.06
2.122,0.03,-0.03,0.00,0.04
2.132,0.01,-0.04,-0.01,0.04
2.142,-0.01,-0.03,-0.01,0.04
2.152,-0.03,-0.03,0.01,0.04
2.163,-0.04,-0.00,0.02,0.04
2.173,-0.06,0.01,0.02,0.07
2.183,-0.06,0.03,0.06,0.09
2.193,-0.04,0.03,0.06,0.07
2.203,-0.03,-0.01,0.04,0.05
2.213,-0.01,-0.02,0.03,0.04
2.223,-0.00,-0.02,0.01,0.02
2.233,0.01,-0.01,-0.01,0.02
2.243,0.01,-0.01,-0.03,0.03
2.253,0.01,-0.01,-0.04,0.05
2.263,0.01,-0.03,-0.02,0.04
2.273,0.02,-0.03,0.03,0.05
2.283,0.06,-0.01,0.03,0.07
2.293,0.07,-0.01,0.01,0.08
2.303,0.07,-0.00,0.02,0.07
2.313,0.06,-0.00,-0.02,0.07
2.323,0.04,-0.01,-0.03,0.05
2.334,0.02,0.00,-0.02,0.03
2.343,0.00,-0.01,0.01,0.02
2.354,-0.00,-0.00,0.02,0.02
2.364,-0.03,-0.01,0.02,0.04
2.374,-0.03,-0.00,0.02,0.03
2.384,-0.02,-0.02,0.01,0.03
2.394,-0.01,-0.03,0.01,0.04
2.404,-0.00,-0.02,0.01,0.02
2.414,0.00,-0.01,0.03,0.03
2.424,0.01,-0.01,0.09,0.09
2.434,0.00,0.00,0.10,0.10
2.444,0.04,0.03,0.10,0.11
2.454,0.08,0.07,0.07,0.13
2.464,0.08,0.08,-0.03,0.12
2.474,0.05,0.07,-0.10,0.13
2.484,0.00,0.06,-0.11,0.12
2.494,-0.04,-0.00,-0.06,0.07
2.504,-0.06,-0.07,0.04,0.10
2.514,-0.05,-0.12,0.08,0.16
2.525,-0.04,-0.15,0.10,0.19
2.535,-0.00,-0.15,0.08,0.17
2.545,0.02,-0.11,0.07,0.13
2.555,0.01,-0.06,0.05,0.08
2.565,0.00,-0.03,0.02,0.04
2.575,-0.01,0.02,-0.01,0.02
2.585,-0.01,0.03,-0.02,0.04
2.595,0.01,0.03,0.01,0.03
2.605,0.01,0.01,0.03,0.04
2.615,0.01,0.01,0.04,0.04
2.625,0.02,0.03,0.05,0.06
2.635,0.05,0.03,0.01,0.06
2.645,0.03,0.04,-0.01,0.05
2.655,0.02,0.03,-0.04,0.05
2.665,0.01,0.02,-0.04,0.05
2.675,0.02,0.02,-0.02,0.04
2.685,0.02,-0.01,0.00,0.02
2.696,0.04,-0.01,0.05,0.07
2.706,0.03,-0.00,0.07,0.07
2.716,0.03,0.00,0.05,0.06
2.726,0.05,0.02,0.04,0.07
2.736,0.04,0.01,0.02,0.05
2.746,0.03,-0.00,0.00,0.03
2.756,0.00,-0.02,-0.01,0.02
2.766,-0.02,-0.05,-0.00,0.05
2.776,-0.02,-0.06,0.01,0.07
2.786,-0.02,-0.06,0.03,0.07
2.796,-0.02,-0.06,0.03,0.07
2.806,0.01,-0.05,0.04,0.06
2.816,0.03,-0.03,0.04,0.06
2.826,0.03,-0.03,0.02,0.04
2.836,0.03,-0.02,0.01,0.04
2.847,0.01,-0.02,0.01,0.03
2.856,-0.00,-0.02,0.02,0.03
2.867,-0.03,-0.00,0.03,0.04
2.877,-0.02,0.00,0.04,0.04
2.887,-0.02,0.01,0.03,0.04
2.897,-0.00,0.03,0.03,0.04
2.907,-0.00,0.04,0.01,0.04
2.917,-0.01,0.02,-0.01,0.02
2.927,0.00,-0.01,0.05,0.05
2.937,0.03,-0.04,0.04,0.07
2.947,0.02,-0.05,-0.00,0.06
2.957,0.02,-0.04,0.01,0.05
2.967,0.01,-0.00,-0.01,0.02
2.977,-0.00,0.02,-0.01,0.02
2.987,-0.01,0.05,0.04,0.07
2.997,-0.03,0.05,0.02,0.06
3.007,-0.03,0.02,0.03,0.05
3.017,-0.00,-0.02,0.03,0.04
3.028,0.01,-0.05,0.04,0.07
3.038,0.04,-0.05,0.05,0.07
3.047,0.03,-0.04,0.06,0.08
3.058,0.06,-0.01,0.06,0.09
3.068,0.06,0.04,0.07,0.10
3.078,0.08,0.11,0.01,0.14
3.088,0.08,0.15,-0.06,0.18
3.098,0.06,0.13,-0.06,0.15
3.108,0.03,0.05,-0.07,0.09
3.118,-0.00,-0.03,-0.02,0.03
3.128,-0.01,-0.11,0.04,0.11
3.138,-0.03,-0.16,0.05,0.17
3.148,-0.06,-0.17,0.05,0.19
3.158,-0.05,-0.14,0.03,0.15
3.168,-0.04,-0.08,0.02,0.09
3.178,-0.04,-0.02,0.03,0.06
3.188,-0.04,0.01,0.05,0.07
3.199,-0.02,0.02,0.06,0.07
3.208,0.02,0.03,0.03,0.05
3.219,0.05,0.02,0.02,0.06
3.229,0.06,0.00,0.01,0.06
3.239,0.01,-0.01,-0.01,0.02
3.249,-0.00,-0.00,-0.01,0.01
3.259,-0.01,0.02,-0.00,0.03
3.269,-0.03,0.07,-0.00,0.07
3.279,-0.03,0.08,-0.01,0.08
3.289,-0.00,0.08,-0.01,0.09
3.299,0.05,0.06,0.03,0.08
3.309,0.07,0.02,0.03,0.08
3.319,0.06,-0.01,0.05,0.08
3.329,0.06,-0.03,0.01,0.07
3.339,0.04,-0.05,-0.02,0.07
3.349,0.04,-0.03,-0.00,0.06
3.359,0.03,-0.02,-0.01,0.04
3.370,0.03,-0.03,0.01,0.04
3.379,0.02,-0.01,0.05,0.06
3.390,0.00,-0.05,0.05,0.07
3.400,-0.02,-0.07,0.05,0.09
3.410,-0.04,-0.07,0.04,0.09
3.420,-0.03,-0.08,0.01,0.08
3.430,-0.03,-0.05,-0.01,0.06
3.440,-0.03,-0.01,-0.03,0.04
3.450,-0.00,0.01,-0.02,0.02
3.460,0.02,0.04,-0.00,0.05
3.470,0.01,0.05,0.04,0.06
3.480,0.02,0.04,0.06,0.08
3.490,0.01,0.03,0.08,0.08
3.500,0.00,-0.01,0.05,0.05
3.510,-0.02,-0.02,0.01,0.03
3.520,0.00,-0.03,-0.00,0.03
3.530,-0.00,-0.03,-0.04,0.05
3.540,0.01,-0.01,-0.02,0.03
3.551,0.02,-0.01,-0.01,0.02
3.560,0.02,-0.01,0.03,0.04
3.571,0.01,0.00,0.08,0.09
3.581,0.02,-0.01,0.08,0.08
3.591,0.03,-0.01,0.03,0.04
3.601,0.03,-0.01,-0.03,0.04
3.611,0.02,0.01,-0.05,0.06
3.621,0.01,0.01,-0.06,0.07
3.631,0.00,0.01,-0.05,0.05
3.641,0.01,0.03,0.01,0.03
3.651,0.01,0.02,0.04,0.05
3.661,-0.01,-0.01,0.05,0.06
3.671,-0.01,-0.01,0.08,0.08
3.681,-0.02,-0.01,0.07,0.08
3.691,-0.01,-0.04,0.07,0.08
3.701,0.01,-0.07,0.09,0.12
3.711,0.03,-0.08,0.10,0.13
3.721,0.06,-0.06,0.07,0.11
3.732,0.09,-0.01,0.03,0.09
3.742,0.10,0.05,-0.07,0.13
3.752,0.06,0.11,-0.11,0.17
3.762,0.01,0.11,-0.09,0.14
3.772,-0.06,0.04,-0.05,0.09
3.782,-0.07,-0.02,0.05,0.09
3.792,-0.05,-0.10,0.10,0.15
3.802,-0.06,-0.12,0.10,0.17
3.812,-0.04,-0.12,0.08,0.15
3.822,-0.01,-0.06,0.01,0.06
3.832,-0.03,0.01,-0.01,0.03
3.842,-0.03,0.05,-0.00,0.06
3.852,-0.02,0.08,-0.00,0.08
3.862,0.01,0.05,0.01,0.05
3.872,0.02,0.02,0.01,0.03
3.882,0.02,-0.02,0.01,0.03
3.892,0.03,-0.03,0.04,0.05
3.902,0.02,-0.04,0.04,0.06
3.912,0.01,-0.03,0.03,0.04
3.922,0.01,-0.01,0.02,0.03
3.933,0.02,-0.01,0.00,0.02
3.943,0.03,-0.00,-0.02,0.04
3.953,0.04,0.03,-0.02,0.05
3.963,0.03,0.03,-0.02,0.05
3.973,0.02,0.04,0.02,0.05
3.983,0.02,0.03,0.04,0.05
3.993,0.01,0.00,0.03,0.03
4.003,0.02,-0.00,0.02,0.03
4.013,0.04,-0.02,0.03,0.05
4.023,0.04,-0.00,0.01,0.04
4.033,0.03,0.01,0.02,0.04
4.043,0.02,-0.01,-0.01,0.02
4.053,-0.01,-0.04,-0.01,0.04
4.063,-0.04,-0.06,0.02,0.07
4.073,-0.05,-0.07,0.05,0.10
4.083,-0.04,-0.07,0.06,0.10
4.094,-0.02,-0.07,0.06,0.09
4.104,-0.01,-0.05,0.04,0.06
4.114,-0.02,-0.02,0.03,0.05
4.124,-0.04,0.00,0.03,0.05
4.134,-0.02,0.03,0.04,0.05
4.144,-0.02,0.04,0.02,0.05
4.154,-0.01,0.05,0.02,0.06
4.164,-0.01,0.03,0.01,0.04
4.174,-0.00,0.02,0.00,0.02
4.184,0.01,0.03,-0.01,0.03
4.194,0.03,0.02,-0.01,0.04
4.204,0.02,0.03,0.00,0.03
4.214,0.01,0.02,0.02,0.03
4.224,-0.01,0.02,0.04,0.05
4.234,-0.01,0.01,0.02,0.02
4.244,0.02,-0.02,0.02,0.03
4.255,0.02,-0.04,0.03,0.06
4.265,0.03,-0.06,0.03,0.07
4.275,0.03,-0.09,0.04,0.10
4.285,0.04,-0.09,0.04,0.10
4.295,0.04,-0.06,0.02,0.07
4.305,0.02,-0.04,0.02,0.05
4.315,-0.00,-0.03,0.01,0.03
4.325,-0.01,0.00,0.03,0.03
4.335,-0.02,0.01,0.02,0.03
4.345,-0.04,0.01,0.04,0.06
4.355,-0.04,0.00,0.04,0.05
4.365,-0.03,-0.00,0.02,0.04
4.375,-0.03,-0.00,-0.01,0.03
4.385,-0.01,0.00,-0.01,0.01
4.395,-0.01,0.02,0.02,0.03
4.405,-0.03,0.04,0.05,0.07
4.415,-0.01,0.06,0.06,0.09
4.425,0.01,0.07,0.07,0.10
4.436,0.07,0.09,0.05,0.12
4.446,0.07,0.08,-0.03,0.11
4.456,0.04,0.05,-0.07,0.10
4.466,0.02,0.01,-0.06,0.07
4.476,-0.03,-0.03,-0.03,0.05
4.486,-0.03,-0.10,0.03,0.11
4.496,-0.03,-0.14,0.09,0.16
4.506,-0.03,-0.15,0.09,0.18
4.516,-0.02,-0.14,0.06,0.16
4.526,0.00,-0.11,0.05,0.12
4.536,-0.01,-0.08,0.02,0.08
4.546,-0.02,-0.04,0.03,0.05
4.556,-0.03,-0.00,0.02,0.03
4.566,-0.03,0.03,0.02,0.04
4.576,-0.03,0.04,-0.01,0.05
4.586,-0.02,0.06,0.01,0.06
4.597,-0.02,0.06,0.04,0.07
4.607,-0.01,0.06,0.04,0.07
4.617,-0.00,0.05,0.01,0.06
4.627,0.01,0.05,-0.01,0.05
4.637,0.02,0.04,-0.03,0.05
4.647,0.02,0.03,-0.02,0.04
4.657,0.03,0.01,-0.01,0.03
4.667,0.03,0.00,0.02,0.04
4.677,0.04,-0.02,0.01,0.04
4.687,0.04,-0.03,0.02,0.05
4.697,0.01,-0.03,0.04,0.05
4.707,-0.02,-0.00,0.02,0.03
4.717,-0.03,0.01,0.01,0.03
4.727,-0.01,0.00,0.01,0.02
4.737,0.01,-0.03,0.02,0.04
4.747,0.03,-0.05,0.02,0.06
4.757,0.03,-0.08,0.03,0.09
4.767,0.02,-0.07,0.02,0.08
4.777,0.01,-0.06,-0.01,0.06
4.787,-0.02,-0.04,0.01,0.05
4.798,-0.04,-0.00,0.03,0.05
4.808,-0.05,0.03,0.04,0.07
4.818,-0.03,0.02,0.05,0.07
4.828,0.01,0.02,0.04,0.05
4.838,0.03,0.02,0.01,0.04
4.848,0.04,0.01,-0.00,0.04
4.858,0.01,0.01,0.01,0.02
4.868,0.01,0.00,0.01,0.02
4.878,-0.02,0.00,0.01,0.03
4.888,-0.03,0.03,0.00,0.04
4.898,-0.02,0.03,0.01,0.04
4.908,-0.02,0.01,0.03,0.04
4.918,-0.01,0.01,0.03,0.03
4.928,0.01,-0.01,0.03,0.03
4.938,0.04,-0.02,0.02,0.05
4.948,0.03,-0.04,0.03,0.06
4.959,0.01,-0.04,-0.00,0.04
4.969,0.00,-0.05,0.00,0.05
4.979,-0.02,-0.03,0.00,0.03
4.989,-0.00,-0.01,0.01,0.02
4.999,0.01,0.01,0.03,0.04
5.009,0.02,0.02,0.06,0.07
5.019,0.04,0.03,0.04,0.06
5.029,0.05,0.00,0.02,0.05
5.039,0.03,-0.02,0.01,0.04
5.049,0.00,-0.04,-0.01,0.04
5.059,-0.04,-0.03,-0.02,0.05
5.069,-0.04,-0.02,-0.02,0.05
5.079,-0.03,-0.00,-0.03,0.04
5.089,-0.02,0.02,0.03,0.04
5.099,-0.02,0.03,0.05,0.06
5.109,0.02,0.02,0.05,0.06
5.119,0.04,0.00,0.04,0.05
5.129,0.03,-0.02,0.02,0.04
5.140,0.02,-0.03,0.04,0.06
5.150,-0.00,-0.03,0.03,0.04
5.160,-0.02,-0.01,0.02,0.03
5.170,0.01,0.03,0.02,0.04
5.180,0.05,0.05,0.02,0.07
5.190,0.05,0.08,-0.02,0.10
5.200,0.02,0.10,-0.04,0.11
5.210,0.01,0.08,-0.02,0.08
5.220,-0.02,0.01,-0.01,0.02
5.230,-0.03,-0.05,0.06,0.09
5.240,-0.03,-0.11,0.09,0.15
5.250,-0.03,-0.14,0.09,0.17
5.260,-0.03,-0.13,0.03,0.13
5.270,-0.02,-0.08,-0.02,0.08
5.280,-0.03,-0.03,-0.02,0.04
5.290,-0.04,0.01,0.01,0.05
5.301,-0.04,0.02,0.06,0.07
5.310,-0.01,0.03,0.07,0.08
5.321,0.03,0.03,0.06,0.07
5.331,0.05,0.01,0.04,0.07
5.341,0.04,0.00,0.02,0.04
5.351,0.01,-0.02,0.00,0.02
5.361,-0.01,0.00,-0.01,0.02
5.371,0.02,0.04,-0.04,0.06
5.381,0.01,0.04,-0.06,0.07
5.391,0.00,0.03,-0.06,0.07
5.401,0.01,0.03,-0.02,0.04
5.411,0.01,0.03,0.04,0.05
5.421,0.03,0.01,0.06,0.07
5.431,0.03,0.00,0.06,0.07
5.441,0.01,-0.00,0.05,0.05
5.451,0.00,-0.02,0.02,0.03
5.461,0.00,-0.02,-0.01,0.02
5.471,0.00,-0.03,-0.02,0.03
5.481,0.01,-0.02,-0.01,0.02
5.491,-0.01,-0.03,0.00,0.03
5.502,-0.02,-0.02,0.03,0.04
5.512,-0.02,-0.03,0.07,0.08
5.522,-0.02,-0.06,0.05,0.08
5.532,-0.02,-0.06,0.07,0.10
5.542,-0.01,-0.07,0.07,0.10
5.552,0.02,-0.04,0.04,0.06
5.562,0.00,0.00,-0.01,0.01
5.572,0.01,0.02,-0.03,0.04
5.582,0.00,0.03,-0.01,0.03
5.592,-0.02,0.03,0.03,0.05
5.602,-0.03,0.03,0.07,0.08
5.612,-0.02,0.02,0.09,0.09
5.622,-0.01,0.01,0.06,0.06
5.632,0.03,-0.00,0.04,0.05
5.642,0.01,-0.02,0.03,0.04
5.652,0.00,-0.04,-0.01,0.04
5.663,0.01,-0.01,-0.02,0.02
5.673,0.01,0.02,-0.03,0.03
5.683,0.00,0.02,-0.03,0.04
5.693,-0.00,0.01,-0.04,0.04
5.703,0.00,0.00,0.01,0.01
5.713,-0.01,-0.03,0.03,0.04
5.723,0.03,-0.05,0.02,0.06
5.733,0.04,-0.06,0.00,0.07
5.743,0.04,-0.07,-0.01,0.09
5.753,0.02,-0.07,-0.02,0.08
5.763,-0.01,-0.07,-0.04,0.08
5.773,-0.03,-0.04,-0.02,0.06
5.783,-0.05,-0.04,-0.02,0.07
5.793,-0.07,-0.03,-0.04,0.08
5.803,-0.06,-0.01,-0.04,0.07
5.813,-0.06,-0.02,-0.02,0.07
5.823,-0.05,-0.00,0.00,0.05
5.834,-0.07,-0.01,0.03,0.07
5.844,-0.08,0.01,0.05,0.09
5.854,-0.05,0.02,0.04,0.07
5.864,-0.06,0.02,0.02,0.07
5.874,-0.06,-0.00,-0.00,0.06
5.884,-0.07,-0.01,-0.00,0.07
5.894,-0.07,-0.01,0.02,0.08
5.904,-0.03,-0.01,0.07,0.08
5.914,-0.00,-0.01,0.10,0.10
5.924,0.01,0.01,0.12,0.12
5.934,0.02,0.06,0.08,0.11
5.944,0.01,0.11,-0.00,0.11
5.954,-0.00,0.13,-0.03,0.13
5.964,0.00,0.10,-0.04,0.11
5.974,0.02,0.07,-0.02,0.07
5.984,-0.00,0.05,0.03,0.06
5.994,0.01,-0.02,0.06,0.06
6.004,0.02,-0.09,0.08,0.12
6.014,0.01,-0.11,0.08,0.14
6.025,0.01,-0.12,0.09,0.15
6.035,0.06,-0.11,0.13,0.18
6.045,0.05,-0.06,0.11,0.13
6.055,0.07,-0.02,0.05,0.09
6.065,0.09,0.01,0.01,0.09
6.075,0.11,0.01,-0.02,0.11
6.085,0.10,0.00,0.01,0.10
6.095,0.09,-0.01,0.03,0.09
6.105,0.09,-0.02,0.05,0.10
6.115,0.08,-0.01,0.03,0.09
6.125,0.06,0.02,-0.03,0.07
6.135,0.01,0.01,-0.05,0.05
6.145,-0.00,0.02,0.02,0.03
6.155,-0.02,0.01,-0.00,0.02
6.165,-0.03,-0.01,-0.00,0.03
6.175,-0.02,-0.01,0.06,0.06
6.186,0.00,0.00,0.06,0.07
6.195,0.01,0.02,0.05,0.06
6.206,-0.01,0.05,0.03,0.06
6.216,0.01,0.05,0.01,0.05
6.226,0.00,0.04,0.03,0.05
6.236,-0.02,0.04,0.02,0.05
6.246,-0.04,0.00,0.03,0.05
6.256,-0.06,-0.00,0.03,0.06
6.266,-0.08,-0.03,-0.00,0.09
6.276,-0.09,-0.02,0.01,0.09
6.286,-0.09,-0.01,0.02,0.09
6.296,-0.06,-0.00,0.03,0.07
6.306,-0.03,-0.00,0.03,0.04
6.316,-0.02,-0.02,0.01,0.02
6.326,0.01,-0.02,0.03,0.04
6.336,-0.01,-0.03,0.05,0.05
6.346,0.01,-0.03,0.06,0.07
6.357,-0.00,-0.03,0.06,0.07
6.367,0.00,-0.02,0.02,0.03
6.377,0.00,-0.01,0.00,0.01
6.387,0.01,-0.03,0.00,0.03
6.397,0.02,0.01,0.02,0.03
6.407,0.01,0.02,0.01,0.03
6.417,0.02,0.02,0.01,0.03
6.427,0.01,0.03,0.02,0.04
6.437,0.02,0.04,0.01,0.05
6.447,0.02,0.04,0.00,0.04
6.457,0.02,0.01,-0.01,0.02
6.467,0.02,0.01,0.05,0.05
6.477,0.03,0.00,0.06,0.07
6.487,0.04,-0.00,0.04,0.05
6.497,0.03,-0.01,0.03,0.04
6.507,0.01,-0.04,0.01,0.04
6.517,-0.01,-0.03,-0.02,0.03
6.528,-0.02,-0.03,0.01,0.04
6.538,-0.04,-0.03,0.04,0.06
6.547,-0.03,-0.02,0.04,0.05
6.558,-0.03,-0.01,0.06,0.07
6.568,-0.01,-0.01,0.07,0.07
6.578,-0.01,-0.01,0.06,0.06
6.588,0.00,-0.01,0.03,0.03
6.598,-0.00,-0.01,0.00,0.01
6.608,-0.00,-0.00,-0.02,0.02
6.618,-0.02,-0.02,-0.01,0.03
6.628,-0.01,-0.02,0.02,0.02
6.638,-0.01,0.01,0.06,0.06
6.648,0.02,0.05,0.10,0.11
6.658,0.04,0.09,0.08,0.13
6.668,0.03,0.11,-0.02,0.12
6.678,0.02,0.12,-0.04,0.13
6.688,0.00,0.08,-0.05,0.09
6.698,-0.01,0.02,-0.03,0.04
6.709,-0.03,-0.05,0.04,0.07
6.719,-0.03,-0.12,0.03,0.13
6.729,-0.02,-0.15,0.04,0.15
6.739,-0.01,-0.14,0.04,0.15
6.749,-0.02,-0.09,0.08,0.12
6.759,-0.04,-0.04,0.07,0.09
6.769,-0.04,-0.01,0.07,0.08
6.779,-0.01,0.02,0.06,0.07
6.789,-0.01,0.01,0.02,0.03
6.799,0.01,0.01,-0.00,0.01
6.809,0.00,0.01,-0.00,0.01
6.819,0.02,0.01,0.01,0.02
6.829,0.01,0.02,0.03,0.04
6.839,0.01,0.05,0.02,0.05
6.849,0.02,0.07,0.01,0.07
6.859,0.02,0.09,-0.01,0.09
6.869,0.04,0.06,-0.01,0.07
6.879,0.05,0.03,-0.01,0.06
6.889,0.06,-0.01,0.02,0.06
6.900,0.05,-0.03,0.03,0.07
6.910,0.04,-0.04,0.04,0.07
6.920,0.01,-0.04,0.04,0.06
6.930,-0.01,-0.03,0.00,0.03
6.940,-0.02,-0.03,-0.01,0.03
6.950,-0.02,-0.02,-0.03,0.04
6.960,-0.03,-0.02,0.01,0.04
6.970,-0.04,-0.01,0.02,0.04
6.980,-0.03,-0.02,0.04,0.05
6.990,-0.00,-0.03,0.06,0.07
7.000,-0.01,-0.04,0.07,0.08
7.010,-0.03,-0.04,0.05,0.07
7.020,-0.03,-0.03,0.04,0.06
7.030,-0.03,-0.02,0.03,0.05
7.040,-0.01,0.01,0.02,0.02
7.051,-0.02,0.01,0.02,0.03
7.060,-0.01,0.02,0.04,0.04
7.071,-0.01,0.06,0.03,0.06
7.080,-0.01,0.04,0.04,0.06
7.091,0.01,0.04,0.04,0.05
7.101,-0.01,0.03,0.04,0.05
7.111,-0.02,0.02,-0.00,0.03
7.121,-0.02,0.01,-0.01,0.03
7.131,-0.00,-0.01,-0.01,0.02
7.141,0.00,0.01,-0.03,0.04
7.151,0.01,-0.00,-0.02,0.02
7.161,0.02,-0.01,-0.00,0.02
7.171,0.03,-0.03,0.00,0.04
7.181,0.03,-0.03,0.04,0.06
7.191,0.02,-0.03,0.04,0.06
7.201,-0.00,-0.03,0.05,0.06
7.211,-0.01,-0.03,0.06,0.07
7.221,-0.00,-0.02,0.03,0.03
7.232,0.00,-0.01,0.00,0.01
7.242,0.01,0.00,0.00,0.01
7.252,0.01,0.01,-0.00,0.01
7.262,0.01,0.01,0.03,0.03
7.272,0.01,0.01,0.03,0.04
7.282,-0.00,0.01,0.00,0.01
7.292,-0.01,0.00,0.04,0.04
7.302,-0.01,0.01,0.04,0.04
7.312,-0.04,-0.00,0.00,0.04
7.322,-0.03,-0.01,0.00,0.03
7.332,-0.02,-0.02,0.01,0.03
7.342,-0.01,-0.02,0.02,0.03
7.352,-0.00,-0.04,0.05,0.06
7.362,-0.00,-0.02,0.07,0.07
7.372,0.04,0.02,0.10,0.11
7.382,0.05,0.06,0.07,0.11
7.392,0.04,0.09,-0.02,0.10
7.403,0.01,0.09,-0.08,0.12
7.413,0.00,0.05,-0.07,0.08
7.423,-0.02,0.00,-0.03,0.04
7.433,-0.03,-0.04,0.02,0.05
7.443,-0.05,-0.07,0.06,0.10
7.453,-0.04,-0.10,0.07,0.13
7.463,-0.03,-0.10,0.05,0.12
7.473,-0.04,-0.09,0.05,0.11
7.483,-0.02,-0.05,0.05,0.07
7.493,-0.01,-0.00,0.05,0.05
7.503,-0.01,0.01,0.04,0.05
7.513,-0.00,0.02,0.03,0.04
7.523,-0.01,0.02,0.01,0.02
7.533,0.01,0.00,0.01,0.01
7.543,0.00,0.00,0.01,0.01
7.553,0.01,0.02,0.02,0.03
7.563,-0.00,0.02,0.02,0.03
7.574,0.01,0.03,-0.00,0.03
7.584,0.01,0.05,0.00,0.05
7.594,0.04,0.05,-0.01,0.07
7.604,0.03,0.02,-0.01,0.04
7.614,0.04,0.01,0.00,0.04
7.624,0.02,0.00,0.04,0.05
7.634,0.02,-0.02,0.02,0.03
7.644,0.02,-0.01,0.04,0.04
7.654,0.01,-0.00,0.03,0.03
7.664,0.00,-0.00,-0.00,0.00
7.674,-0.01,-0.00,-0.00,0.01
7.684,-0.00,-0.01,-0.01,0.02
7.694,-0.01,-0.02,0.01,0.03
7.704,-0.02,-0.03,0.04,0.05
7.714,-0.02,-0.05,0.04,0.07
7.724,-0.02,-0.06,0.05,0.09
7.734,-0.02,-0.06,0.07,0.10
7.744,-0.01,-0.05,0.07,0.09
7.755,-0.01,-0.04,0.04,0.06
7.765,0.01,-0.00,0.03,0.03
7.775,0.01,0.01,-0.00,0.02
7.785,-0.01,0.02,0.00,0.02
7.795,-0.03,0.01,0.01,0.03
7.805,-0.02,0.00,-0.01,0.02
7.815,-0.03,-0.02,0.01,0.04
7.825,-0.02,-0.03,0.04,0.05
7.835,0.01,-0.01,0.04,0.04
7.845,0.01,-0.03,0.04,0.05
7.855,0.01,-0.03,0.03,0.04
7.865,0.02,-0.01,0.02,0.03
7.875,0.00,-0.01,0.04,0.04
7.885,0.00,0.01,0.01,0.02
7.895,-0.01,0.04,0.01,0.04
7.905,-0.01,0.03,0.04,0.05
7.916,0.00,0.01,0.03,0.03
7.925,0.02,-0.01,0.05,0.05
7.936,0.02,-0.03,0.05,0.06
7.946,0.01,-0.04,0.05,0.06
7.956,0.01,-0.03,0.02,0.03
7.966,0.01,-0.01,-0.00,0.01
7.976,0.00,0.01,0.01,0.01
7.986,-0.00,0.02,0.02,0.03
7.996,-0.02,0.01,0.01,0.02
8.006,-0.02,-0.00,0.03,0.04
8.016,-0.02,0.00,0.05,0.05
8.026,-0.02,-0.00,0.04,0.05
8.036,-0.03,-0.00,0.02,0.04
8.046,-0.03,-0.02,0.01,0.04
8.056,-0.02,-0.01,0.01,0.02
8.066,0.00,-0.02,0.02,0.03
8.076,0.02,-0.02,0.03,0.05
8.087,0.04,-0.01,0.04,0.06
8.096,0.04,0.03,0.06,0.08
8.106,0.06,0.05,0.04,0.09
8.117,0.06,0.09,-0.03,0.11
8.127,0.03,0.08,-0.06,0.11
8.137,0.00,0.05,-0.04,0.06
8.147,-0.04,-0.00,-0.00,0.04
8.157,-0.04,-0.07,0.04,0.09
8.167,-0.04,-0.12,0.07,0.15
8.177,-0.03,-0.13,0.05,0.14
8.187,-0.03,-0.12,0.05,0.13
8.197,-0.02,-0.07,0.05,0.09
8.207,-0.03,-0.03,0.05,0.06
8.217,-0.02,-0.02,0.06,0.07
8.227,-0.02,0.02,0.07,0.07
8.237,0.02,0.02,0.04,0.05
8.247,0.01,0.02,0.01,0.02
8.257,0.01,0.01,-0.01,0.02
8.267,0.00,0.01,0.00,0.01
8.277,0.00,0.02,-0.00,0.02
8.288,-0.01,0.03,0.01,0.03
8.298,0.01,0.05,0.00,0.05
8.308,-0.01,0.07,-0.01,0.07
8.318,0.01,0.06,-0.01,0.06
8.328,0.01,0.03,-0.00,0.03
8.338,0.00,-0.02,0.01,0.02
8.348,-0.01,-0.04,0.04,0.05
8.358,-0.01,-0.06,0.04,0.07
8.368,-0.01,-0.03,0.06,0.07
8.378,-0.00,-0.02,0.04,0.04
8.388,0.02,0.00,0.02,0.03
8.398,0.00,0.01,0.01,0.01
8.408,0.02,0.00,-0.01,0.03
8.418,-0.00,-0.01,0.01,0.02
8.428,-0.01,-0.05,0.03,0.06
8.438,-0.02,-0.07,0.03,0.08
8.448,-0.03,-0.09,0.05,0.11
8.458,-0.01,-0.07,0.05,0.09
8.469,-0.01,-0.04,0.05,0.07
8.479,0.00,0.00,0.04,0.04
8.489,0.01,0.04,0.02,0.04
8.499,0.00,0.05,-0.00,0.05
8.509,-0.01,0.04,0.01,0.04
8.519,-0.01,0.03,0.02,0.03
8.529,-0.01,0.01,0.03,0.04
8.539,-0.03,0.00,0.03,0.04
8.549,0.00,0.01,0.03,0.03
8.559,-0.01,0.01,0.03,0.03
8.569,-0.01,0.01,0.02,0.02
8.579,0.00,0.01,0.02,0.02
8.589,-0.00,-0.00,0.00,0.01
8.599,-0.01,-0.01,0.01,0.02
8.609,-0.00,0.00,0.02,0.02
8.620,-0.01,-0.02,0.02,0.03
8.629,-0.00,-0.03,0.03,0.04
8.640,-0.01,-0.02,0.02,0.03
8.650,-0.01,-0.03,0.01,0.03
8.660,0.01,-0.03,0.02,0.04
8.670,0.01,-0.03,0.04,0.06
8.680,0.02,-0.01,0.05,0.06
8.690,0.03,-0.03,0.04,0.06
8.700,0.02,-0.01,0.00,0.02
8.710,0.00,-0.03,-0.01,0.03
8.720,-0.01,-0.02,-0.01,0.03
8.730,-0.02,0.00,-0.01,0.02
8.740,-0.02,0.01,0.00,0.02
8.750,-0.02,0.02,0.03,0.04
8.760,-0.02,0.03,0.04,0.05
8.770,-0.02,0.03,0.06,0.07
8.780,-0.03,0.04,0.06,0.08
8.790,-0.03,0.03,0.02,0.05
8.801,-0.00,-0.01,0.01,0.02
8.810,0.02,-0.04,0.01,0.05
8.821,0.02,-0.06,0.02,0.06
8.831,0.04,-0.05,0.04,0.07
8.841,0.02,-0.03,0.06,0.07
8.851,0.03,0.01,0.08,0.09
8.861,0.04,0.06,0.06,0.10
8.871,0.04,0.11,-0.02,0.12
8.881,0.02,0.10,-0.08,0.13
8.891,0.00,0.06,-0.07,0.09
8.901,-0.03,0.00,-0.02,0.04
8.911,-0.03,-0.05,0.04,0.07
8.921,-0.04,-0.11,0.08,0.14
8.931,-0.04,-0.12,0.09,0.15
8.941,-0.05,-0.12,0.06,0.14
8.952,-0.05,-0.07,0.05,0.10
8.961,-0.04,-0.03,0.06,0.08
8.971,-0.05,0.00,0.04,0.07
8.982,-0.03,0.02,0.03,0.05
8.991,-0.01,0.04,0.03,0.05
9.002,0.02,0.02,0.02,0.03
9.012,0.02,0.00,0.02,0.03
9.022,0.04,0.00,0.01,0.04
9.032,0.02,0.02,0.02,0.03
9.042,0.01,0.02,0.03,0.04
9.052,0.01,0.03,0.00,0.03
9.062,0.02,0.04,-0.01,0.04
9.072,0.01,0.03,-0.04,0.04
9.082,0.01,0.02,-0.02,0.03
9.092,0.02,0.03,0.00,0.04
9.102,0.03,-0.00,0.02,0.04
9.112,0.03,-0.02,0.05,0.06
9.122,0.03,-0.01,0.06,0.07
9.132,0.01,-0.03,0.06,0.07
9.142,0.02,-0.01,0.03,0.04
9.152,0.01,-0.00,0.02,0.02
9.163,-0.00,0.01,-0.01,0.01
9.172,-0.00,0.01,-0.00,0.01
9.183,-0.02,-0.00,0.01,0.03
9.193,-0.01,-0.03,0.03,0.04
9.203,-0.03,-0.06,0.04,0.08
9.213,-0.04,-0.05,0.04,0.07
9.223,-0.03,-0.03,0.04,0.06
9.233,-0.04,-0.02,0.05,0.07
9.243,-0.03,0.01,0.01,0.03
9.253,-0.02,0.01,-0.00,0.03
9.263,0.00,0.02,0.00,0.02
9.273,0.01,0.02,0.01,0.03
9.283,0.01,0.00,0.04,0.04
9.293,0.02,-0.00,0.05,0.05
9.303,-0.00,-0.00,0.05,0.05
9.313,0.01,-0.01,0.06,0.06
9.323,-0.00,0.00,0.01,0.02
9.333,0.00,0.01,0.00,0.01
9.344,-0.01,0.02,-0.02,0.03
9.353,-0.01,0.00,-0.02,0.02
9.364,-0.00,0.01,-0.00,0.01
9.374,0.02,-0.01,0.02,0.03
9.384,0.01,-0.01,0.04,0.04
9.394,0.02,-0.00,0.05,0.05
9.404,0.00,0.00,0.07,0.07
9.414,-0.02,-0.02,0.03,0.03
9.424,-0.01,-0.01,0.00,0.01
9.434,0.00,0.00,0.00,0.01
9.444,-0.01,0.01,-0.00,0.02
9.454,0.00,0.00,0.01,0.01
9.464,0.01,-0.02,0.05,0.05
9.474,0.02,-0.02,0.07,0.08
9.484,0.02,-0.03,0.08,0.09
9.494,0.02,-0.03,0.05,0.07
9.504,0.02,-0.01,0.01,0.02
9.515,-0.02,-0.00,-0.02,0.03
9.525,-0.03,-0.01,-0.02,0.03
9.535,-0.01,0.02,0.00,0.02
9.545,-0.01,0.01,0.02,0.02
9.555,-0.01,-0.01,0.05,0.05
9.565,-0.02,0.01,0.07,0.08
9.575,-0.02,0.01,0.06,0.06
9.585,-0.02,-0.00,0.04,0.04
9.595,-0.01,-0.01,0.02,0.03
9.605,-0.02,-0.02,-0.01,0.03
9.615,-0.01,-0.03,-0.00,0.03
9.625,-0.00,-0.01,0.02,0.02
9.635,0.02,0.02,0.05,0.06
9.645,0.03,0.07,0.06,0.09
9.655,0.05,0.09,0.03,0.11
9.665,0.03,0.09,-0.03,0.10
9.675,0.02,0.06,-0.04,0.08
9.686,-0.01,0.00,-0.03,0.03
9.696,-0.04,-0.03,-0.01,0.05
9.706,-0.04,-0.07,0.04,0.09
9.716,-0.04,-0.13,0.06,0.15
9.726,-0.03,-0.12,0.06,0.14
9.736,-0.01,-0.08,0.07,0.11
9.746,-0.01,-0.05,0.06,0.08
9.756,-0.02,-0.02,0.03,0.04
9.766,-0.03,-0.00,0.03,0.04
9.776,-0.02,0.01,0.02,0.03
9.786,0.00,0.01,0.01,0.02
9.796,0.01,-0.00,0.01,0.02
9.806,0.01,-0.00,0.01,0.02
9.816,0.02,0.00,0.04,0.04
9.826,0.03,0.03,0.03,0.05
9.836,0.03,0.06,0.03,0.07
9.846,0.04,0.06,-0.00,0.07
9.856,0.02,0.06,-0.05,0.07
9.867,0.01,0.05,-0.06,0.08
9.876,0.01,0.02,-0.04,0.05
9.887,0.01,-0.00,0.00,0.01
9.897,0.00,-0.02,0.04,0.05
9.907,-0.00,-0.03,0.07,0.08
9.917,-0.01,-0.02,0.07,0.08
9.927,-0.02,-0.01,0.04,0.05
9.937,-0.03,0.01,-0.00,0.03
9.947,-0.03,0.00,-0.00,0.03
9.957,-0.02,0.02,-0.01,0.03
9.967,-0.03,0.00,0.01,0.03
9.977,-0.01,-0.03,0.03,0.04
9.987,-0.01,-0.06,0.04,0.07
9.997,-0.00,-0.07,0.06,0.10
10.007,0.01,-0.06,0.07,0.09
10.018,0.04,-0.04,0.08,0.09
10.027,0.03,-0.02,0.04,0.05
10.038,0.02,-0.01,0.02,0.03
10.048,0.02,0.01,0.02,0.03
10.058,0.00,0.03,0.01,0.03
10.068,0.01,0.05,0.02,0.05
10.078,-0.01,0.04,0.02,0.04
10.088,-0.01,0.02,0.02,0.03
10.098,-0.00,0.02,0.03,0.04
10.108,-0.00,0.02,0.02,0.03
10.118,0.00,0.01,0.02,0.02
10.128,-0.01,0.01,0.02,0.02
10.138,0.00,0.00,0.01,0.01
10.148,-0.02,0.01,0.01,0.02
10.158,-0.01,0.00,0.02,0.02
10.168,-0.02,0.01,0.02,0.03
10.178,-0.02,-0.02,0.04,0.05
10.188,-0.00,-0.04,0.05,0.06
10.198,0.01,-0.05,0.06,0.08
10.208,0.01,-0.04,0.05,0.06
10.219,0.02,-0.06,0.03,0.07
10.229,0.01,-0.04,0.02,0.05
10.239,0.02,-0.03,0.01,0.04
10.249,-0.00,-0.00,-0.00,0.01
10.259,-0.01,0.02,-0.01,0.02
10.269,0.01,0.03,0.01,0.03
10.279,-0.00,0.03,0.04,0.05
10.289,-0.02,0.03,0.05,0.06
10.299,-0.02,0.03,0.03,0.05
10.309,-0.02,0.03,0.02,0.04
10.319,-0.02,-0.00,-0.00,0.02
10.329,-0.01,-0.01,-0.01,0.02
10.339,-0.00,-0.02,0.01,0.02
10.349,0.02,-0.00,0.04,0.04
10.359,0.02,0.00,0.08,0.08
10.369,0.05,0.02,0.09,0.11
10.379,0.07,0.07,0.07,0.12
10.389,0.06,0.09,-0.00,0.11
10.400,0.03,0.07,-0.05,0.09
10.410,-0.01,0.01,-0.06,0.07
10.420,-0.05,-0.04,-0.02,0.07
10.430,-0.07,-0.08,0.02,0.10
10.440,-0.05,-0.11,0.05,0.13
10.450,-0.04,-0.13,0.06,0.15
10.460,-0.01,-0.11,0.07,0.13
10.470,-0.01,-0.07,0.06,0.09
10.480,-0.00,-0.02,0.05,0.05
10.490,-0.01,0.03,0.05,0.06
10.500,-0.00,0.05,0.03,0.06
10.510,-0.01,0.05,0.02,0.05
10.520,0.01,0.03,0.02,0.03
10.530,0.03,0.04,0.01,0.05
10.540,0.01,0.02,-0.01,0.03
10.551,0.02,0.03,-0.01,0.04
10.560,0.01,0.04,0.02,0.04
10.571,-0.00,0.04,0.01,0.04
10.581,0.01,0.04,0.00,0.04
10.591,0.01,0.02,-0.04,0.05
10.601,0.03,-0.01,-0.03,0.04
10.611,0.02,-0.02,0.00,0.03
10.621,0.00,-0.04,0.04,0.06
10.631,0.00,-0.06,0.07,0.09
10.641,0.00,-0.04,0.08,0.09
10.651,-0.01,-0.04,0.08,0.09
10.661,-0.01,-0.03,0.05,0.06
10.671,0.00,-0.01,0.01,0.02
10.681,0.00,0.00,0.01,0.01
10.691,0.01,0.01,0.01,0.02
10.701,-0.00,0.00,-0.01,0.01
10.711,-0.02,-0.01,0.01,0.02
10.721,-0.00,-0.04,0.04,0.06
10.732,-0.01,-0.05,0.06,0.07
10.741,-0.01,-0.03,0.04,0.05
10.752,-0.02,-0.01,0.02,0.03
10.762,-0.00,0.00,0.01,0.01
10.772,0.02,0.01,0.01,0.02
10.782,0.02,0.03,0.02,0.05
10.792,-0.00,0.02,0.02,0.03
10.802,0.01,0.01,0.02,0.02
10.812,0.00,0.01,0.05,0.05
10.822,-0.02,-0.01,0.03,0.04
10.832,-0.01,-0.01,0.03,0.03
10.842,0.00,-0.02,0.01,0.02
10.852,-0.00,-0.01,0.01,0.01
10.862,-0.01,-0.01,-0.01,0.02
10.872,-0.00,-0.02,0.01,0.02
10.882,-0.01,-0.00,0.02,0.02
10.892,-0.01,-0.01,0.04,0.04
10.902,-0.01,-0.01,0.07,0.07
10.913,0.01,-0.02,0.07,0.07
10.923,0.01,-0.01,0.07,0.07
10.933,0.02,-0.01,0.04,0.05
10.943,0.01,-0.02,0.01,0.02
10.953,-0.00,-0.00,-0.02,0.02
10.963,-0.01,-0.00,-0.04,0.04
10.973,-0.01,-0.01,-0.03,0.03
10.983,-0.02,-0.02,-0.00,0.03
10.993,-0.02,-0.00,0.02,0.03
11.003,-0.01,0.00,0.05,0.05
11.013,-0.01,0.01,0.07,0.07
11.023,-0.02,0.01,0.05,0.06
11.033,-0.02,-0.00,0.02,0.03
11.043,0.00,-0.01,0.01,0.01
11.053,0.01,-0.02,-0.00,0.02
11.063,0.01,-0.03,0.01,0.04
11.073,0.03,-0.03,0.02,0.05
11.084,0.05,-0.01,0.08,0.10
11.094,0.07,0.03,0.10,0.12
11.104,0.06,0.07,0.05,0.10
11.114,0.06,0.09,-0.03,0.11
11.124,0.01,0.07,-0.09,0.11
11.134,-0.04,0.05,-0.08,0.10
11.144,-0.07,-0.01,-0.03,0.07
11.154,-0.06,-0.05,0.03,0.08
11.164,-0.06,-0.10,0.07,0.13
11.174,-0.04,-0.11,0.07,0.13
11.184,-0.03,-0.10,0.09,0.14
11.194,-0.02,-0.08,0.09,0.12
11.204,-0.00,-0.04,0.08,0.09
11.214,0.01,-0.01,0.05,0.05
11.224,-0.02,0.01,0.04,0.05
11.234,-0.00,0.01,0.02,0.03
11.244,0.00,0.00,0.00,0.00
11.254,0.01,0.01,0.01,0.02
11.264,0.03,0.01,0.01,0.03
11.275,0.02,0.02,0.03,0.04
11.285,0.03,0.02,0.05,0.06
11.295,0.02,0.04,0.03,0.05
11.305,0.01,0.05,-0.00,0.05
11.315,0.00,0.05,-0.02,0.05
11.325,0.01,0.02,-0.03,0.03
11.335,-0.02,0.00,-0.02,0.03
11.345,-0.01,-0.01,0.01,0.02
11.355,0.01,-0.02,0.03,0.04
11.365,0.01,-0.03,0.06,0.07
11.375,0.02,-0.01,0.07,0.08
11.385,0.01,-0.02,0.05,0.05
11.395,0.02,-0.01,0.03,0.03
11.405,-0.01,-0.02,0.01,0.02
11.415,-0.01,-0.04,-0.00,0.04
11.425,-0.01,-0.05,0.02,0.06
11.436,-0.01,-0.05,0.02,0.05
11.446,-0.01,-0.07,0.05,0.09
11.456,0.01,-0.05,0.06,0.08
11.466,0.02,-0.02,0.05,0.06
11.476,-0.00,0.00,0.02,0.02
11.486,-0.01,0.02,0.00,0.02
11.496,-0.02,0.03,0.01,0.04
11.506,-0.02,0.03,-0.02,0.04
11.516,-0.00,0.04,0.01,0.04
11.526,-0.02,0.05,0.03,0.06
11.536,-0.02,0.03,0.06,0.07
11.546,-0.01,0.00,0.05,0.05
11.556,-0.02,-0.00,0.03,0.04
11.566,-0.00,-0.01,0.03,0.03
11.576,-0.00,0.00,-0.00,0.00
11.586,-0.00,-0.01,-0.01,0.02
11.596,-0.01,-0.01,-0.01,0.02
11.607,-0.03,-0.02,0.00,0.04
11.617,-0.02,-0.03,0.04,0.05
11.627,-0.01,-0.02,0.03,0.04
11.637,0.01,-0.03,0.05,0.06
11.647,0.03,-0.03,0.04,0.05
11.657,0.03,-0.03,0.03,0.05
11.667,0.02,-0.02,0.01,0.03
11.677,0.02,-0.00,-0.01,0.02
11.687,0.02,0.01,-0.01,0.02
11.697,-0.01,0.01,-0.02,0.02
11.707,-0.02,0.02,-0.01,0.03
11.717,-0.02,0.01,0.01,0.02
11.727,-0.01,0.02,0.03,0.04
11.737,-0.02,0.02,0.03,0.04
11.747,-0.01,0.01,0.02,0.03
11.757,-0.00,-0.00,0.03,0.03
11.767,0.00,-0.03,0.02,0.03
11.778,0.00,-0.03,0.05,0.06
11.787,0.00,-0.02,0.06,0.07
11.798,0.04,0.01,0.09,0.10
11.808,0.05,0.05,0.09,0.11
11.818,0.06,0.07,0.03,0.10
11.828,0.05,0.09,-0.05,0.12
11.838,0.01,0.06,-0.06,0.09
11.848,-0.02,-0.00,-0.04,0.04
11.858,-0.05,-0.05,0.01,0.08
11.868,-0.06,-0.10,0.06,0.13
11.878,-0.06,-0.13,0.05,0.15
11.888,-0.04,-0.11,0.06,0.13
11.898,-0.02,-0.06,0.05,0.09
11.908,-0.02,-0.04,0.06,0.08
11.918,0.00,0.00,0.06,0.06
11.928,0.01,0.04,0.05,0.07
11.938,0.01,0.04,0.04,0.06
11.948,-0.01,0.04,0.01,0.04
11.958,-0.01,0.04,0.00,0.04
11.969,-0.01,0.01,-0.01,0.02
11.979,-0.00,0.00,-0.00,0.00
11.989,0.01,0.01,0.04,0.04
11.999,0.02,0.03,0.04,0.05
12.009,0.03,0.03,0.03,0.05
12.019,0.03,0.03,0.00,0.04
12.029,0.03,0.03,-0.03,0.05
12.039,0.01,-0.00,-0.02,0.03
12.049,0.01,-0.02,0.00,0.02
12.059,-0.02,-0.03,0.03,0.04
12.069,-0.00,-0.02,0.02,0.03
12.079,0.01,-0.01,0.04,0.04
12.089,0.01,-0.01,0.02,0.02
12.099,0.01,-0.01,0.01,0.02
12.109,0.01,-0.01,0.03,0.04
12.119,0.01,-0.02,0.03,0.04
12.129,-0.02,-0.03,0.03,0.05
12.140,-0.02,-0.03,0.02,0.05
12.150,-0.03,-0.03,0.02,0.05
12.160,-0.03,-0.03,0.02,0.04
12.170,-0.02,-0.03,0.03,0.05
12.180,0.02,-0.01,0.02,0.03
12.190,0.02,0.01,0.04,0.05
12.200,0.03,0.01,0.04,0.05
12.210,0.01,0.01,0.03,0.04
12.220,-0.00,0.02,0.02,0.03
12.230,-0.01,0.02,0.02,0.03
12.240,-0.02,0.01,0.03,0.04
12.250,-0.03,0.01,0.02,0.04
12.260,-0.03,0.00,0.02,0.04
12.270,-0.02,0.00,0.02,0.03
12.280,-0.01,0.00,0.02,0.02
12.290,-0.00,0.01,0.02,0.03
12.300,0.02,0.01,0.03,0.03
12.310,0.00,0.00,0.02,0.02
12.321,-0.00,-0.03,0.01,0.03
12.331,-0.00,-0.04,0.03,0.05
12.341,-0.01,-0.06,0.05,0.08
12.351,-0.00,-0.06,0.05,0.07
12.361,0.03,-0.01,0.02,0.03
12.371,0.03,-0.01,0.02,0.04
12.381,0.02,-0.01,-0.00,0.02
12.391,0.01,0.01,0.00,0.01
12.401,0.01,-0.00,0.00,0.01
12.411,-0.01,0.01,0.03,0.03
12.421,-0.03,0.00,0.03,0.04
12.431,-0.03,0.00,0.05,0.06
12.441,-0.03,-0.00,0.03,0.05
12.451,-0.02,0.01,0.05,0.05
12.461,-0.01,-0.00,0.02,0.02
12.471,0.01,-0.02,0.00,0.02
12.482,-0.01,-0.02,0.02,0.04
12.492,-0.01,-0.03,0.05,0.06
12.502,0.01,-0.02,0.08,0.08
12.512,0.02,0.00,0.12,0.12
12.522,0.04,0.03,0.10,0.11
12.532,0.05,0.05,0.03,0.08
12.542,0.03,0.06,-0.05,0.08
12.552,-0.01,0.04,-0.06,0.07
12.562,-0.03,0.01,-0.04,0.05
12.572,-0.04,-0.03,0.00,0.05
12.582,-0.05,-0.08,0.03,0.10
12.592,-0.04,-0.09,0.05,0.11
12.602,-0.04,-0.10,0.05,0.12
12.612,-0.03,-0.07,0.05,0.09
12.622,-0.01,-0.05,0.06,0.07
12.632,-0.00,-0.01,0.05,0.05
12.642,-0.01,0.02,0.03,0.04
12.652,-0.01,0.04,0.02,0.04
12.662,0.01,0.03,0.00,0.03
12.673,0.02,0.03,-0.01,0.03
12.683,0.03,0.02,-0.00,0.04
12.693,0.03,-0.00,-0.00,0.03
12.703,0.00,0.01,0.03,0.03
12.713,-0.01,0.02,0.02,0.03
12.723,-0.01,0.04,0.00,0.04
12.733,-0.03,0.06,-0.03,0.07
12.743,-0.02,0.04,-0.03,0.05
12.753,-0.01,0.02,-0.01,0.03
12.763,-0.00,-0.01,0.06,0.06
12.773,0.02,-0.04,0.08,0.09
12.783,0.03,-0.04,0.08,0.10
12.793,0.03,-0.04,0.08,0.09
12.803,0.02,-0.03,0.02,0.04
12.813,0.02,-0.02,-0.00,0.03
12.823,0.01,-0.02,-0.01,0.02
12.834,0.01,-0.03,0.00,0.03
12.844,-0.00,-0.02,0.00,0.02
12.854,-0.02,-0.02,0.02,0.03
12.864,-0.02,-0.03,0.02,0.04
12.874,-0.03,-0.02,0.03,0.05
12.884,-0.03,-0.03,0.04,0.06
12.894,-0.01,0.00,0.06,0.06
12.904,-0.02,0.02,0.05,0.06
12.914,-0.03,0.04,0.03,0.06
12.924,-0.01,0.04,0.02,0.05
12.934,-0.01,0.04,0.02,0.05
12.944,-0.01,0.03,0.01,0.03
12.954,-0.02,0.02,0.01,0.03
12.964,-0.03,0.01,0.03,0.04
12.974,-0.02,-0.01,0.04,0.05
12.984,-0.02,-0.01,0.04,0.05
12.994,-0.00,-0.02,0.05,0.05
13.004,0.01,-0.03,0.04,0.05
13.015,0.02,-0.01,0.02,0.03
13.025,0.01,-0.02,0.00,0.02
13.035,-0.01,-0.01,-0.00,0.01
13.045,0.01,-0.02,0.02,0.03
13.055,0.02,-0.03,0.02,0.04
13.065,0.04,-0.04,0.04,0.06
13.075,0.04,-0.02,0.02,0.05
13.085,0.04,-0.02,0.03,0.05
13.095,0.02,0.01,0.02,0.03
13.105,0.00,0.03,-0.00,0.03
13.115,0.00,0.01,0.01,0.01
13.125,-0.02,0.01,0.02,0.03
13.135,-0.04,-0.01,-0.03,0.05
13.145,-0.05,-0.01,0.01,0.05
13.155,-0.04,0.00,0.03,0.05
13.165,-0.05,0.01,0.03,0.06
13.175,-0.04,0.01,0.02,0.05
13.186,-0.00,0.01,0.02,0.02
13.196,-0.01,0.00,0.01,0.02
13.206,-0.01,-0.02,0.01,0.02
13.216,0.00,-0.02,0.03,0.03
13.226,0.02,-0.02,0.07,0.07
13.236,0.04,0.01,0.09,0.10
13.246,0.05,0.03,0.08,0.10
13.256,0.06,0.06,0.02,0.09
13.266,0.05,0.06,-0.06,0.10
13.276,0.04,0.04,-0.06,0.08
13.286,-0.02,-0.01,-0.03,0.04
13.296,-0.05,-0.05,0.01,0.07
13.306,-0.04,-0.09,0.04,0.11
13.316,-0.05,-0.12,0.07,0.14
13.326,-0.04,-0.11,0.08,0.14
13.336,-0.01,-0.07,0.07,0.10
13.346,-0.01,-0.02,0.05,0.06
13.356,-0.02,-0.00,0.04,0.05
13.367,-0.01,0.02,0.04,0.05
13.376,-0.01,0.02,0.03,0.04
13.387,-0.01,0.03,0.00,0.03
13.397,-0.01,0.01,-0.00,0.02
13.407,0.00,0.01,0.03,0.03
13.417,-0.00,0.01,0.04,0.04
13.427,0.00,0.01,0.06,0.06
13.437,0.00,0.04,0.02,0.04
13.447,0.02,0.06,-0.03,0.07
13.457,0.03,0.05,-0.05,0.07
13.467,0.01,0.02,-0.04,0.05
13.477,0.01,0.00,-0.01,0.01
13.487,0.00,-0.03,0.04,0.05
13.497,0.01,-0.06,0.08,0.10
13.507,-0.00,-0.06,0.08,0.10
13.517,-0.00,-0.05,0.07,0.09
13.528,0.00,-0.01,0.05,0.05
13.538,0.02,0.02,0.02,0.03
13.548,0.02,0.04,-0.01,0.05
13.558,0.02,0.03,0.01,0.04
13.568,-0.00,0.01,0.00,0.01
13.578,-0.01,-0.02,0.01,0.03
13.588,-0.01,-0.04,0.05,0.06
13.598,-0.02,-0.05,0.06,0.08
13.608,-0.02,-0.06,0.05,0.08
13.618,-0.02,-0.03,0.06,0.07
13.628,-0.01,-0.00,0.04,0.04
13.638,-0.01,0.03,0.01,0.03
13.648,-0.01,0.02,-0.00,0.02
13.658,-0.01,0.02,0.01,0.02
13.668,-0.01,0.02,0.02,0.03
13.678,-0.01,0.02,0.04,0.04
13.688,-0.02,0.01,0.04,0.04
13.698,-0.01,0.01,0.03,0.03
13.708,-0.00,0.01,0.00,0.01
13.719,-0.01,0.00,-0.01,0.01
13.728,0.00,0.02,-0.00,0.02
13.739,-0.01,0.00,-0.00,0.01
13.749,-0.01,-0.01,-0.02,0.03
13.759,0.00,-0.02,0.03,0.03
13.769,-0.01,-0.04,0.05,0.06
13.779,-0.01,-0.03,0.05,0.06
13.789,0.03,-0.03,0.07,0.09
13.799,0.04,-0.03,0.07,0.09
13.809,0.02,-0.04,0.04,0.06
13.819,0.02,-0.03,0.04,0.05
13.829,0.02,-0.01,0.00,0.02
13.839,0.01,-0.01,-0.02,0.03
13.849,-0.00,-0.02,-0.01,0.02
13.859,-0.01,0.00,0.01,0.02
13.869,-0.02,0.03,0.04,0.06
13.879,-0.03,0.01,0.05,0.06
13.889,-0.05,0.03,0.05,0.07
13.900,-0.04,0.04,0.04,0.07
13.910,-0.05,0.04,0.03,0.07
13.920,-0.05,0.02,0.01,0.06
13.930,-0.02,-0.00,0.01,0.02
13.940,-0.01,-0.02,0.01,0.02
13.950,-0.00,-0.02,0.04,0.04
13.960,0.03,-0.01,0.05,0.06
13.970,0.05,0.00,0.10,0.11
13.980,0.05,0.02,0.10,0.11
13.990,0.07,0.04,0.03,0.09
14.000,0.04,0.05,-0.05,0.08
14.010,0.01,0.03,-0.07,0.07
14.020,-0.02,-0.00,-0.05,0.05
14.030,-0.04,-0.04,0.01,0.06
14.040,-0.04,-0.08,0.03,0.10
14.051,-0.03,-0.10,0.05,0.11
14.060,-0.03,-0.09,0.07,0.12
14.071,-0.02,-0.06,0.06,0.09
14.081,-0.02,-0.04,0.05,0.07
14.091,-0.03,-0.01,0.06,0.07
14.101,-0.02,0.01,0.08,0.08
14.111,-0.01,0.03,0.06,0.07
14.121,0.01,0.02,0.03,0.04
14.131,0.02,0.03,-0.03,0.04
14.141,0.03,0.04,-0.04,0.06
14.151,0.01,0.03,-0.01,0.03
14.161,0.00,0.02,-0.01,0.02
14.171,-0.04,-0.00,-0.02,0.05
14.181,-0.04,-0.03,0.06,0.07
14.191,-0.00,-0.06,0.02,0.06
14.201,0.01,-0.10,0.00,0.10
14.211,0.03,-0.09,0.01,0.10
14.221,0.03,-0.06,0.05,0.09
14.232,0.00,-0.01,0.06,0.06
14.241,-0.03,0.04,0.05,0.07
14.252,-0.03,0.08,0.06,0.11
14.262,-0.01,0.09,0.05,0.10
14.272,0.00,0.08,0.02,0.08
14.282,0.01,0.05,-0.01,0.05
14.292,0.03,0.01,-0.01,0.03
14.302,0.03,-0.01,-0.01,0.03
14.312,-0.00,-0.02,-0.00,0.03
14.322,-0.02,-0.03,0.02,0.04
14.332,-0.02,-0.04,0.03,0.06
14.342,0.00,-0.06,0.03,0.07
14.352,0.01,-0.05,0.04,0.07
14.362,0.01,-0.04,0.03,0.05
14.372,0.02,-0.02,0.02,0.03
14.382,0.01,-0.01,0.01,0.02
14.392,0.01,0.00,-0.01,0.01
14.402,-0.00,-0.01,0.02,0.02
14.413,-0.03,-0.01,0.04,0.05
14.423,-0.03,-0.01,0.06,0.07
14.433,-0.04,-0.02,0.05,0.07
14.443,-0.04,-0.02,0.05,0.07
14.453,-0.04,0.01,0.02,0.04
14.463,-0.03,0.04,-0.00,0.05
14.473,-0.03,0.02,0.00,0.04
14.483,-0.02,0.03,0.02,0.04
14.493,-0.01,0.01,0.01,0.02
14.503,0.02,0.00,0.03,0.04
14.513,0.03,-0.01,0.04,0.05
14.523,0.03,-0.01,0.03,0.05
14.533,0.02,-0.02,0.02,0.04
14.543,0.01,-0.03,0.02,0.04
14.553,-0.00,-0.02,0.02,0.03
14.563,0.00,-0.02,0.02,0.03
14.573,0.00,-0.03,0.00,0.03
14.583,0.01,-0.02,0.03,0.04
14.594,0.01,-0.03,0.03,0.04
14.604,-0.00,-0.01,0.02,0.03
14.614,-0.01,-0.00,0.00,0.01
14.624,0.00,0.02,0.02,0.02
14.634,-0.01,0.02,0.01,0.03
14.644,-0.01,0.01,0.03,0.03
14.654,-0.01,0.02,0.03,0.04
14.664,-0.01,0.01,0.02,0.03
14.674,-0.01,-0.00,0.01,0.02
14.684,-0.00,-0.00,0.00,0.01
14.694,-0.02,-0.02,0.01,0.03
14.704,-0.02,-0.01,0.01,0.03
14.714,0.01,-0.00,0.04,0.04
14.724,0.03,0.02,0.08,0.09
14.734,0.04,0.06,0.10,0.13
14.744,0.06,0.08,0.03,0.11
14.754,0.05,0.08,-0.05,0.11
14.764,0.01,0.04,-0.06,0.07
14.775,-0.04,-0.00,-0.04,0.05
14.785,-0.06,-0.05,0.00,0.08
14.795,-0.08,-0.09,0.04,0.12
14.805,-0.04,-0.12,0.05,0.13
14.815,-0.03,-0.09,0.08,0.12
14.825,-0.00,-0.06,0.06,0.08
14.835,0.00,-0.02,0.05,0.06
14.845,0.01,0.01,0.05,0.05
14.855,0.01,0.03,0.02,0.04
14.865,0.00,0.02,0.01,0.03
14.875,-0.01,0.02,0.01,0.02
14.885,-0.00,0.02,-0.02,0.03
14.895,0.01,0.02,0.00,0.02
14.905,0.01,0.02,0.02,0.03
14.915,0.02,0.02,0.04,0.05
14.925,0.02,0.03,0.04,0.06
14.936,0.03,0.04,0.01,0.05
14.946,0.02,0.04,-0.03,0.05
14.956,0.02,0.02,-0.04,0.05
14.966,0.03,0.02,-0.02,0.04
14.976,0.02,-0.01,0.02,0.03
14.986,0.02,-0.03,0.04,0.05
14.996,0.02,-0.04,0.04,0.06
15.006,0.02,-0.03,0.04,0.06
15.016,0.00,-0.01,0.03,0.04
15.026,-0.01,0.01,0.02,0.02
15.036,-0.00,0.01,0.01,0.01
15.046,-0.01,0.00,0.02,0.02
15.056,-0.01,-0.00,0.02,0.02
15.066,-0.02,-0.03,0.01,0.04
15.076,-0.02,-0.03,0.01,0.04
15.086,-0.02,-0.05,0.03,0.06
15.096,-0.01,-0.04,0.05,0.06
15.106,0.01,-0.03,0.07,0.08
15.117,0.02,-0.01,0.06,0.06
15.127,0.01,0.01,0.05,0.05
15.137,0.01,0.02,0.03,0.04
15.147,-0.01,0.04,0.01,0.04
15.157,-0.01,0.03,0.00,0.03
15.167,-0.02,0.02,-0.00,0.03
15.177,-0.03,0.02,0.01,0.03
15.187,-0.02,0.01,0.02,0.03
15.197,-0.02,-0.00,0.03,0.04
15.207,-0.00,-0.01,0.05,0.05
15.217,-0.01,-0.01,0.02,0.02
15.227,0.00,-0.00,0.03,0.03
15.237,-0.00,0.00,0.02,0.02
15.247,-0.02,-0.02,0.01,0.03
15.257,-0.02,-0.02,0.03,0.04
15.267,0.00,-0.02,0.02,0.03
15.278,0.00,-0.02,0.04,0.04
15.288,0.03,-0.03,0.05,0.06
15.298,0.04,-0.03,0.04,0.06
15.308,0.03,-0.02,0.03,0.05
15.318,0.00,-0.01,0.00,0.01
15.328,-0.01,0.00,0.01,0.01
15.338,-0.01,0.00,-0.01,0.01
15.348,-0.00,0.02,0.00,0.02
15.358,-0.02,0.04,0.02,0.04
15.368,-0.01,0.04,0.04,0.06
15.378,-0.01,0.04,0.02,0.04
15.388,-0.02,0.03,0.02,0.04
15.398,-0.01,-0.01,0.04,0.04
15.408,-0.00,-0.02,0.04,0.04
15.418,-0.02,-0.04,0.03,0.06
15.428,0.01,-0.05,0.05,0.07
15.438,0.02,-0.03,0.05,0.06
15.448,0.02,0.01,0.05,0.06
15.458,0.04,0.04,0.05,0.07
15.468,0.06,0.09,0.01,0.11
15.479,0.04,0.10,-0.06,0.12
15.489,0.00,0.06,-0.06,0.09
15.499,-0.03,0.02,-0.04,0.05
15.509,-0.04,-0.03,0.02,0.05
15.519,-0.06,-0.09,0.04,0.11
15.529,-0.04,-0.11,0.06,0.13
15.539,-0.03,-0.09,0.07,0.11
15.549,-0.01,-0.07,0.06,0.09
15.559,0.00,-0.02,0.07,0.07
15.569,-0.01,0.01,0.05,0.05
15.579,-0.01,0.00,0.04,0.04
15.589,0.01,0.01,0.05,0.05
15.599,0.02,0.02,0.02,0.03
15.609,0.02,-0.00,-0.01,0.02
15.619,0.01,0.01,-0.02,0.02
15.630,-0.01,0.02,-0.00,0.02
15.640,-0.02,0.01,0.01,0.02
15.650,-0.01,0.05,0.02,0.05
15.660,-0.00,0.06,0.02,0.06
15.670,0.01,0.06,0.01,0.06
15.680,0.02,0.02,-0.01,0.03
15.690,0.03,0.01,0.00,0.03
15.700,0.02,-0.02,0.01,0.03
15.710,0.01,-0.05,0.01,0.05
15.720,0.00,-0.04,0.03,0.05
15.730,-0.00,-0.03,0.03,0.04
15.740,-0.01,-0.00,0.00,0.01
15.750,-0.01,0.02,-0.01,0.02
15.760,-0.01,0.03,-0.01,0.03
15.770,-0.01,0.02,-0.01,0.02
15.780,-0.00,-0.02,0.01,0.02
15.790,0.01,-0.02,0.04,0.05
15.801,0.02,-0.04,0.06,0.07
15.810,-0.00,-0.05,0.05,0.07
15.821,-0.01,-0.03,0.06,0.07
15.831,-0.02,-0.01,0.04,0.04
15.841,0.01,0.00,0.02,0.02
15.851,0.00,0.03,0.00,0.03
15.861,0.01,0.04,-0.01,0.04
15.871,-0.01,0.02,-0.01,0.02
15.881,-0.00,0.02,0.02,0.03
15.891,0.00,0.01,0.04,0.04
15.901,-0.01,0.02,0.04,0.05
15.911,-0.00,0.00,0.03,0.03
15.921,-0.00,0.01,0.01,0.01
15.931,-0.01,0.01,0.00,0.01
15.941,-0.01,0.02,-0.04,0.05
15.951,-0.00,0.02,-0.02,0.03
15.961,-0.03,0.03,-0.01,0.04
15.971,-0.02,0.00,0.02,0.02
15.982,0.00,-0.02,0.04,0.04
15.992,0.02,-0.04,0.07,0.08
16.002,0.03,-0.04,0.08,0.09
16.012,0.03,-0.04,0.07,0.09
16.022,0.04,-0.06,0.08,0.10
16.032,0.03,-0.04,0.10,0.11
16.042,0.04,-0.03,0.16,0.17
16.052,0.06,-0.04,0.20,0.22
16.062,0.10,-0.04,0.24,0.26
16.072,0.14,-0.06,0.24,0.28
16.082,0.13,-0.04,0.18,0.22
16.092,0.16,0.01,0.17,0.23
16.102,0.21,0.07,0.26,0.34
16.112,0.26,0.10,0.32,0.42
16.122,0.25,0.09,0.21,0.33
16.132,0.22,0.02,-0.09,0.23
16.142,0.17,-0.01,-0.36,0.40
16.152,0.10,-0.02,-0.50,0.51
16.163,0.03,-0.01,-0.51,0.51
16.172,-0.04,-0.01,-0.44,0.44
16.183,-0.08,-0.06,-0.26,0.28
16.193,-0.09,-0.08,0.01,0.12
16.203,-0.09,-0.05,0.22,0.25
16.213,-0.10,-0.02,0.30,0.32
16.223,-0.10,0.00,0.26,0.28
16.233,-0.13,0.01,0.14,0.19
16.243,-0.14,0.03,0.01,0.14
16.253,-0.12,0.03,-0.08,0.14
16.263,-0.08,0.02,-0.11,0.14
16.273,-0.07,0.02,-0.09,0.11
16.283,-0.09,-0.00,-0.04,0.10
16.293,-0.12,0.02,0.05,0.13
16.303,-0.12,0.07,0.12,0.19
16.313,-0.14,0.05,0.18,0.23
16.323,-0.16,0.01,0.23,0.28
16.333,-0.18,-0.03,0.22,0.29
16.343,-0.20,-0.04,0.12,0.24
16.354,-0.19,-0.06,0.01,0.20
16.364,-0.15,-0.03,-0.05,0.16
16.374,-0.13,0.02,-0.03,0.14
16.384,-0.10,0.07,-0.03,0.13
16.394,-0.05,0.08,-0.05,0.11
16.404,-0.04,0.06,-0.08,0.11
16.414,-0.02,0.03,-0.14,0.14
16.424,-0.00,-0.01,-0.16,0.16
16.434,0.02,-0.05,-0.11,0.12
16.444,0.04,-0.08,0.00,0.09
16.454,0.04,-0.07,0.09,0.12
16.464,0.03,-0.06,0.17,0.18
16.474,0.04,-0.05,0.19,0.20
16.484,0.05,-0.01,0.13,0.14
16.494,0.10,0.02,0.05,0.11
16.505,0.14,0.01,-0.06,0.15
16.514,0.15,0.04,-0.14,0.21
16.525,0.13,0.06,-0.16,0.21
16.535,0.10,0.06,-0.08,0.14
16.545,0.05,0.02,0.03,0.06
16.555,0.01,-0.03,0.14,0.14
16.565,-0.02,-0.07,0.15,0.17
16.575,-0.03,-0.09,0.06,0.11
16.585,-0.02,-0.09,0.01,0.09
16.595,-0.07,-0.07,-0.02,0.10
16.605,-0.08,-0.07,0.00,0.10
16.615,-0.07,-0.01,0.05,0.09
16.625,-0.08,-0.01,0.10,0.13
16.635,-0.08,-0.00,0.07,0.11
16.645,-0.07,0.04,0.03,0.09
16.655,-0.07,0.04,-0.02,0.08
16.665,-0.07,0.05,0.02,0.09
16.675,0.00,0.07,0.06,0.09
16.686,0.01,0.04,0.04,0.06
16.695,-0.04,-0.03,-0.02,0.06
16.706,-0.10,-0.05,-0.06,0.13
16.716,-0.10,-0.03,-0.07,0.12
16.726,-0.07,0.01,0.01,0.07
16.736,-0.06,0.05,0.12,0.14
16.746,-0.08,0.06,0.16,0.19
16.756,-0.05,0.05,0.12,0.14
16.766,-0.04,0.02,0.04,0.06
16.776,-0.02,0.01,-0.04,0.05
16.786,0.01,0.02,-0.09,0.09
16.796,0.01,0.02,-0.03,0.04
16.806,0.02,-0.00,0.06,0.06
16.816,0.02,-0.03,0.14,0.14
16.826,0.01,-0.03,0.13,0.14
16.836,-0.03,-0.05,0.06,0.09
16.846,-0.07,-0.08,-0.02,0.11
16.856,-0.07,-0.02,-0.06,0.10
16.866,-0.02,0.04,-0.06,0.07
16.877,0.08,0.10,0.00,0.13
16.887,0.16,0.13,0.08,0.22
16.897,0.19,0.11,0.10,0.24
16.907,0.18,0.04,0.02,0.18
16.917,0.15,-0.00,-0.08,0.17
16.927,0.13,-0.02,-0.09,0.16
16.937,0.14,-0.03,0.00,0.15
16.947,0.11,-0.05,0.07,0.14
16.957,0.08,-0.11,0.09,0.16
16.967,0.07,-0.13,0.10,0.18
16.977,0.07,-0.16,0.10,0.20
16.987,0.03,-0.19,0.08,0.21
16.997,-0.04,-0.20,0.13,0.25
17.007,-0.08,-0.16,0.14,0.23
17.018,-0.07,-0.10,0.10,0.16
17.028,-0.05,-0.06,0.06,0.10
17.038,0.02,0.01,0.03,0.04
17.048,0.10,0.03,-0.01,0.10
17.058,0.15,0.05,-0.15,0.22
17.068,0.14,0.09,-0.26,0.31
17.078,0.04,0.09,-0.30,0.32
17.088,-0.04,0.09,-0.29,0.30
17.098,-0.07,0.03,-0.25,0.26
17.108,-0.06,0.04,-0.15,0.16
17.118,0.01,0.04,-0.00,0.04
17.128,0.01,0.00,0.13,0.13
17.138,-0.03,0.00,0.12,0.12
17.148,-0.07,-0.01,0.11,0.13
17.158,-0.15,-0.02,0.05,0.16
17.168,-0.16,0.04,0.09,0.18
17.178,-0.13,0.12,0.16,0.24
17.188,-0.11,0.24,0.21,0.33
17.198,-0.15,0.23,0.19,0.33
17.208,-0.11,0.18,0.05,0.22
17.219,-0.10,0.12,-0.06,0.17
17.229,-0.06,0.07,-0.07,0.12
17.239,0.10,0.11,-0.02,0.15
17.249,0.04,0.03,-0.06,0.08
17.259,-0.01,-0.04,-0.11,0.12
17.269,0.00,-0.06,-0.05,0.08
17.279,-0.03,-0.07,-0.05,0.09
17.289,-0.02,-0.05,-0.03,0.06
17.299,0.06,-0.03,-0.03,0.07
17.309,0.14,-0.02,0.05,0.15
17.319,0.09,-0.06,0.11,0.16
17.329,0.07,-0.15,0.08,0.19
17.339,0.08,-0.16,0.04,0.19
17.349,0.18,-0.16,-0.02,0.24
17.359,0.17,-0.17,-0.01,0.24
17.369,0.06,-0.16,0.04,0.18
17.379,-0.07,-0.14,0.11,0.19
17.390,-0.11,-0.10,0.22,0.26
17.399,-0.16,-0.09,0.21,0.28
17.410,-0.14,-0.07,0.10,0.18
17.420,-0.11,0.00,0.05,0.12
17.430,-0.01,-0.03,0.03,0.04
17.440,0.04,-0.05,0.02,0.07
17.450,0.04,-0.01,0.10,0.11
17.460,0.04,0.08,0.15,0.18
17.470,0.04,0.13,0.17,0.21
17.480,0.06,0.09,0.18,0.22
17.490,0.00,0.06,0.15,0.16
17.500,-0.11,-0.02,0.02,0.12
17.510,-0.18,-0.08,-0.14,0.24
17.520,-0.12,-0.12,-0.26,0.31
17.530,-0.02,-0.14,-0.27,0.31
17.540,0.02,-0.15,-0.14,0.21
17.551,0.05,-0.07,0.00,0.08
17.560,0.08,0.04,0.16,0.18
17.571,0.09,0.09,0.28,0.30
17.581,0.08,0.11,0.25,0.28
17.591,-0.01,0.13,0.15,0.20
17.601,-0.05,0.06,-0.01,0.08
17.611,-0.10,-0.03,-0.15,0.18
17.621,-0.15,-0.04,-0.17,0.23
17.631,-0.14,0.01,-0.09,0.17
17.641,-0.13,0.05,0.01,0.14
17.651,-0.03,0.01,0.08,0.09
17.661,0.03,0.03,0.09,0.10
17.671,0.04,0.05,0.14,0.15
17.681,0.03,0.07,0.16,0.18
17.691,0.05,0.04,0.04,0.08
17.701,0.04,-0.03,-0.10,0.11
17.711,0.01,-0.09,-0.20,0.22
17.721,-0.00,-0.12,-0.19,0.22
17.731,-0.00,-0.12,-0.05,0.13
17.742,0.02,-0.09,0.13,0.16
17.752,0.10,-0.02,0.26,0.28
17.762,0.13,0.05,0.29,0.33
17.772,0.10,0.08,0.16,0.21
17.782,0.03,0.03,-0.02,0.05
17.792,0.05,-0.03,-0.17,0.18
17.802,0.11,-0.07,-0.25,0.28
17.812,0.12,-0.07,-0.21,0.25
17.822,0.12,-0.05,-0.05,0.14
17.832,0.09,-0.02,0.17,0.19
17.842,0.06,0.01,0.26,0.27
17.852,0.03,0.06,0.22,0.23
17.862,0.07,0.10,0.10,0.16
17.872,0.03,0.11,0.01,0.12
17.882,-0.00,0.05,-0.09,0.10
17.892,0.04,0.05,-0.14,0.15
17.902,0.03,0.04,-0.06,0.08
17.913,-0.10,-0.03,0.02,0.11
17.922,-0.26,-0.20,0.08,0.33
17.933,-0.02,-0.07,0.09,0.12
17.943,0.12,0.00,0.12,0.17
17.953,0.06,-0.01,0.04,0.07
17.963,0.00,-0.05,-0.04,0.06
17.973,-0.06,-0.07,-0.09,0.13
17.983,-0.10,-0.06,-0.10,0.15
17.993,-0.09,-0.04,-0.03,0.11
18.003,-0.07,0.01,0.08,0.11
18.013,-0.03,0.03,0.14,0.15
18.023,-0.01,0.03,0.19,0.19
18.033,0.04,0.02,0.13,0.14
18.043,0.02,-0.04,-0.03,0.06
18.053,0.03,-0.05,-0.15,0.16
18.063,0.02,-0.04,-0.21,0.21
18.073,-0.02,-0.04,-0.19,0.19
18.083,-0.05,-0.07,-0.09,0.13
18.093,0.01,-0.09,0.08,0.12
18.104,0.03,-0.04,0.20,0.21
18.114,0.18,-0.10,0.51,0.54
18.124,0.33,-0.32,0.76,0.89
18.134,0.06,-0.06,0.13,0.15
18.144,0.05,0.32,-0.07,0.34
18.154,-0.06,0.36,-0.72,0.80
18.164,-0.38,0.18,-1.18,1.25
18.174,-0.61,-0.12,-0.85,1.05
18.184,-0.21,-0.08,-0.14,0.27
18.194,0.18,0.05,0.42,0.46
