time,ax,ay,az,atotal
0.000,0.15,-0.03,-0.14,0.21
0.010,0.10,-0.06,-0.11,0.16
0.020,0.02,-0.06,0.00,0.07
0.030,-0.03,0.00,0.01,0.04
0.040,-0.04,0.10,-0.04,0.12
0.051,-0.03,0.12,-0.04,0.13
0.060,0.04,0.06,-0.03,0.07
0.071,0.11,-0.03,-0.04,0.12
0.081,0.21,-0.04,-0.07,0.23
0.091,0.27,-0.08,-0.10,0.30
0.101,0.21,-0.12,-0.11,0.27
0.111,0.12,-0.10,-0.08,0.17
0.121,0.01,-0.07,-0.02,0.08
0.131,-0.03,-0.01,0.04,0.05
0.141,-0.05,0.03,0.06,0.09
0.151,-0.03,0.02,0.02,0.04
0.161,0.00,-0.03,-0.03,0.04
0.171,0.01,-0.10,-0.07,0.12
0.181,0.03,-0.13,-0.09,0.16
0.191,0.22,0.01,-0.05,0.23
0.201,1.58,1.10,0.07,1.93
0.211,0.04,-0.08,-0.34,0.35
0.221,-0.22,-0.49,0.03,0.54
0.232,0.14,-0.16,0.13,0.25
0.242,0.14,0.02,0.16,0.22
0.252,0.18,0.06,0.14,0.24
0.262,0.20,0.07,0.05,0.22
0.272,0.19,0.05,0.03,0.20
0.282,0.15,-0.06,0.07,0.18
0.292,0.20,-0.15,0.07,0.26
0.302,0.23,-0.15,0.10,0.29
0.312,0.22,-0.09,0.06,0.24
0.322,0.17,-0.08,0.05,0.19
0.332,0.16,-0.06,0.08,0.19
0.342,0.06,-0.06,0.10,0.13
0.352,0.03,0.04,0.12,0.13
0.362,0.16,0.09,0.08,0.20
0.372,0.14,0.01,0.04,0.15
0.382,0.11,0.03,-0.04,0.12
0.392,0.09,-0.01,-0.05,0.11
0.403,0.13,-0.07,0.02,0.15
0.412,0.06,-0.24,0.07,0.25
0.423,-0.06,-0.35,0.12,0.38
0.433,0.05,-0.22,0.19,0.30
0.443,0.12,0.04,0.17,0.21
0.453,0.09,0.26,0.02,0.27
0.463,0.03,0.31,-0.12,0.33
0.473,-0.07,0.16,-0.17,0.24
0.483,-0.18,-0.15,-0.04,0.23
0.493,-0.11,-0.34,0.11,0.37
0.503,0.05,-0.36,0.14,0.38
0.513,0.08,-0.23,0.09,0.26
0.523,0.14,0.03,0.07,0.16
0.533,0.11,0.23,-0.01,0.26
0.543,0.04,0.25,-0.12,0.28
0.553,-0.00,0.17,-0.16,0.23
0.563,0.02,0.08,-0.10,0.13
0.573,0.11,0.05,-0.09,0.15
0.583,0.18,0.07,-0.09,0.22
0.594,0.20,0.06,-0.10,0.24
0.604,0.23,0.02,-0.06,0.24
0.614,0.23,-0.03,0.01,0.23
0.624,0.25,-0.06,0.02,0.26
0.634,0.27,-0.08,0.03,0.28
0.644,0.25,-0.09,0.05,0.27
0.654,0.24,-0.06,0.05,0.26
0.664,0.20,-0.02,0.05,0.21
0.674,0.11,0.03,0.04,0.12
0.684,0.06,0.10,-0.06,0.13
0.694,0.01,0.08,-0.15,0.17
0.704,-0.07,0.05,-0.20,0.22
0.714,-0.11,0.01,-0.19,0.22
0.724,-0.11,-0.07,-0.12,0.18
0.734,-0.14,-0.15,-0.10,0.23
0.744,-0.09,-0.14,-0.06,0.18
0.755,-0.04,-0.12,-0.06,0.14
0.765,-0.06,-0.06,-0.09,0.12
0.775,-0.09,-0.02,-0.11,0.14
0.785,-0.11,0.01,-0.10,0.15
0.795,-0.15,-0.01,-0.08,0.16
0.805,-0.14,-0.02,-0.05,0.15
0.815,-0.10,0.02,-0.07,0.12
0.825,-0.07,0.04,-0.03,0.08
0.835,-0.04,0.06,0.04,0.08
0.845,0.02,0.07,0.03,0.08
0.855,0.06,0.08,0.04,0.10
0.865,0.08,0.04,0.06,0.11
0.875,0.09,0.02,0.05,0.10
0.885,0.09,-0.02,0.03,0.10
0.895,0.12,-0.05,0.08,0.15
0.905,0.10,-0.05,0.12,0.16
0.915,0.14,-0.08,0.17,0.23
0.925,0.17,-0.11,0.17,0.26
0.936,0.19,-0.12,0.14,0.27
0.946,0.23,-0.06,0.17,0.29
0.956,0.21,-0.03,0.17,0.27
0.966,0.13,-0.08,0.13,0.20
0.976,0.10,-0.14,0.14,0.22
0.986,0.09,-0.19,0.12,0.24
0.996,0.16,-0.12,0.12,0.24
1.006,0.23,-0.08,0.10,0.26
1.016,0.31,-0.08,0.13,0.35
1.026,0.41,0.03,0.15,0.44
1.036,0.47,0.14,0.10,0.50
1.046,0.44,0.13,0.08,0.46
1.056,0.33,0.02,0.07,0.34
1.066,0.22,-0.12,0.02,0.25
1.076,0.08,-0.22,0.01,0.23
1.086,-0.03,-0.27,-0.03,0.27
1.096,-0.15,-0.19,-0.03,0.25
1.106,-0.23,-0.07,0.01,0.24
1.117,-0.20,0.10,0.04,0.23
1.127,-0.01,0.25,0.02,0.25
1.137,0.14,0.22,-0.02,0.26
1.147,0.24,0.10,-0.06,0.26
1.157,0.25,-0.01,-0.09,0.27
1.167,0.24,-0.07,-0.04,0.25
1.177,0.22,-0.08,0.03,0.24
1.187,0.17,-0.09,0.11,0.22
1.197,0.16,-0.09,0.11,0.21
1.207,0.14,-0.06,0.09,0.18
1.217,0.13,-0.01,0.07,0.15
1.227,0.11,-0.02,-0.02,0.11
1.237,0.10,-0.03,-0.08,0.13
1.247,0.11,-0.02,-0.09,0.14
1.257,0.14,-0.03,-0.04,0.15
1.267,0.20,-0.04,-0.01,0.20
1.277,0.19,-0.08,0.00,0.21
1.288,0.19,-0.04,0.02,0.20
1.298,0.22,0.08,-0.02,0.23
1.308,0.21,0.15,-0.11,0.28
1.318,0.14,0.16,-0.16,0.27
1.328,0.09,0.11,-0.15,0.21
1.338,0.05,0.01,-0.12,0.13
1.348,0.08,-0.10,-0.05,0.13
1.358,0.14,-0.20,0.00,0.24
1.368,0.21,-0.21,-0.03,0.30
1.378,0.28,-0.11,-0.06,0.30
1.388,0.29,0.05,-0.09,0.31
1.398,0.25,0.19,-0.07,0.32
1.408,0.19,0.27,-0.05,0.33
1.418,0.14,0.22,-0.02,0.26
1.428,0.11,0.07,-0.01,0.13
1.438,0.16,-0.06,0.04,0.18
1.448,0.26,-0.16,0.08,0.31
1.458,0.37,-0.22,0.06,0.43
1.469,0.38,-0.26,0.01,0.47
1.479,0.32,-0.21,-0.00,0.39
1.489,0.24,-0.09,-0.01,0.26
1.499,0.19,-0.01,0.07,0.21
1.509,0.18,0.03,0.12,0.22
1.519,0.20,0.04,0.11,0.23
1.529,0.22,0.05,0.09,0.24
1.539,0.26,0.06,0.13,0.30
1.549,0.33,0.05,0.19,0.38
1.559,0.42,-0.00,0.18,0.45
1.569,0.47,-0.07,0.18,0.51
1.579,0.46,-0.17,0.21,0.53
1.589,0.42,-0.31,0.23,0.57
1.599,0.44,-0.37,0.26,0.63
1.609,0.49,-0.34,0.25,0.64
1.620,0.54,-0.24,0.13,0.61
1.629,0.53,-0.12,-0.07,0.55
1.640,0.42,-0.05,-0.30,0.52
1.650,0.19,-0.05,-0.46,0.50
1.660,-0.03,-0.09,-0.51,0.52
1.670,-0.20,-0.17,-0.47,0.54
1.680,-0.24,-0.29,-0.32,0.49
1.690,-0.25,-0.47,-0.23,0.58
1.700,-0.30,-0.62,-0.23,0.72
1.710,-0.25,-0.64,-0.24,0.72
1.720,-0.20,-0.50,-0.30,0.62
1.730,-0.07,-0.23,-0.40,0.46
1.740,0.09,0.13,-0.34,0.38
1.750,0.21,0.41,-0.14,0.48
1.760,0.20,0.50,0.13,0.56
1.770,0.11,0.59,0.37,0.71
1.780,0.21,0.75,0.55,0.95
1.790,0.57,0.81,0.65,1.18
1.800,0.94,0.81,0.65,1.40
1.810,1.21,0.73,0.54,1.52
1.821,1.32,0.67,0.51,1.56
1.831,1.24,0.63,0.49,1.47
1.841,1.04,0.71,0.41,1.33
1.851,0.97,0.76,0.36,1.28
1.861,0.81,0.59,0.33,1.06
1.871,0.56,0.27,0.26,0.67
1.881,0.40,0.11,0.27,0.50
1.891,0.30,0.03,0.33,0.44
1.901,0.17,-0.08,0.49,0.52
1.911,-0.02,-0.19,0.76,0.78
1.921,-0.19,-0.28,0.88,0.94
1.931,-0.14,-0.30,0.84,0.91
1.941,0.07,-0.30,0.74,0.80
1.951,0.26,-0.36,0.66,0.80
1.961,0.33,-0.51,0.57,0.83
1.971,0.22,-0.63,0.59,0.89
1.981,0.01,-0.75,0.65,0.99
1.991,-0.20,-0.75,0.77,1.09
2.002,-0.27,-0.65,0.78,1.05
2.012,-0.29,-0.52,0.66,0.89
2.022,-0.27,-0.47,0.50,0.74
2.032,-0.32,-0.42,0.50,0.73
2.042,-0.39,-0.37,0.62,0.82
2.052,-0.32,-0.33,0.73,0.86
2.062,-0.09,-0.22,0.79,0.82
2.072,0.17,-0.06,0.71,0.74
2.082,0.37,0.12,0.55,0.67
2.092,0.47,0.20,0.51,0.72
2.102,0.55,0.17,0.59,0.83
2.112,0.57,0.04,0.76,0.94
2.122,0.57,-0.03,0.86,1.03
2.132,0.58,-0.09,0.89,1.07
2.142,0.54,-0.15,0.87,1.04
2.152,0.49,-0.24,0.87,1.03
2.162,0.39,-0.40,0.90,1.06
2.173,0.26,-0.51,0.96,1.12
2.183,0.22,-0.54,1.05,1.20
2.193,0.33,-0.49,1.25,1.38
2.203,0.41,-0.46,1.20,1.34
2.213,0.55,-0.39,0.99,1.20
2.223,0.61,-0.36,0.75,1.03
2.233,0.57,-0.37,0.65,0.94
2.243,0.52,-0.36,0.65,0.91
2.253,0.50,-0.41,0.67,0.93
2.263,0.46,-0.41,0.66,0.90
2.273,0.40,-0.38,0.69,0.89
2.283,0.30,-0.40,0.80,0.94
2.293,0.25,-0.48,0.90,1.04
2.303,0.36,-0.62,0.85,1.11
2.313,0.46,-0.78,0.67,1.12
2.324,0.44,-0.94,0.52,1.16
2.333,0.37,-1.06,0.44,1.21
2.344,0.19,-1.12,0.63,1.30
2.354,-0.02,-1.01,0.93,1.37
2.364,-0.15,-0.78,1.16,1.40
2.374,-0.10,-0.50,1.25,1.35
2.384,0.00,-0.34,1.31,1.36
2.394,0.15,-0.34,1.25,1.31
2.404,0.36,-0.53,1.20,1.36
2.414,0.49,-0.77,1.29,1.58
2.424,0.58,-0.93,1.44,1.81
2.434,0.56,-0.89,1.53,1.86
2.444,0.51,-0.64,1.57,1.77
2.454,0.44,-0.26,1.53,1.61
2.464,0.24,0.12,1.13,1.17
2.474,-0.09,0.30,0.59,0.66
2.484,-0.58,0.35,0.18,0.70
2.494,-1.05,0.68,0.32,1.29
2.505,-1.14,1.48,0.78,2.03
2.515,-0.93,2.56,1.09,2.93
2.525,-0.44,3.28,1.05,3.47
2.535,0.32,3.44,0.93,3.58
2.545,0.87,3.14,1.01,3.42
2.555,0.88,2.16,1.20,2.62
2.565,0.55,0.88,1.59,1.90
2.575,0.22,0.28,2.14,2.17
2.585,0.08,0.24,2.25,2.27
2.595,0.11,0.49,2.07,2.13
2.605,0.06,0.89,1.77,1.98
2.615,-0.04,1.50,1.30,1.99
2.625,-0.16,2.43,0.82,2.57
2.635,-0.27,3.32,0.43,3.35
2.645,-0.38,3.84,0.02,3.86
2.655,-0.50,3.70,-0.21,3.74
2.665,-0.53,3.05,-0.32,3.11
2.675,-0.47,2.23,-0.44,2.32
2.686,-0.29,1.46,-0.48,1.56
2.696,-0.14,0.82,-0.47,0.96
2.706,-0.17,0.35,-0.44,0.58
2.716,-0.35,-0.00,-0.51,0.62
2.726,-0.53,-0.25,-0.70,0.91
2.736,-0.72,-0.50,-0.82,1.20
2.746,-0.82,-0.70,-1.04,1.50
2.756,-1.03,-0.66,-1.30,1.79
2.766,-1.35,-0.44,-1.55,2.11
2.776,-1.50,-0.20,-1.70,2.28
2.786,-1.42,-0.00,-1.73,2.24
2.796,-1.18,0.09,-1.66,2.04
2.806,-0.80,0.10,-1.49,1.69
2.816,-0.35,0.13,-1.37,1.42
2.826,0.01,0.10,-1.37,1.38
2.836,0.16,-0.01,-1.30,1.31
2.846,0.18,-0.22,-1.17,1.21
2.856,0.22,-0.54,-1.03,1.19
2.866,0.22,-0.88,-0.78,1.19
2.877,0.28,-1.16,-0.57,1.32
2.887,0.42,-1.40,-0.50,1.54
2.897,0.62,-1.69,-0.42,1.85
2.907,0.91,-2.06,-0.49,2.31
2.917,1.04,-2.25,-0.75,2.59
2.927,1.07,-2.30,-0.97,2.71
2.937,0.92,-2.26,-1.06,2.66
2.947,0.53,-2.15,-1.00,2.43
2.957,0.19,-2.08,-0.88,2.27
2.967,-0.10,-1.95,-0.80,2.11
2.977,-0.35,-1.81,-0.76,2.00
2.987,-0.31,-1.67,-0.53,1.78
2.997,-0.11,-1.45,-0.39,1.51
3.007,0.01,-1.15,-0.32,1.19
3.017,0.05,-0.84,-0.24,0.87
3.028,0.10,-0.57,-0.40,0.70
3.038,0.11,-0.40,-0.59,0.72
3.048,0.07,-0.33,-0.57,0.67
3.058,0.03,-0.37,-0.32,0.49
3.068,0.02,-0.63,-0.06,0.63
3.078,-0.01,-0.94,0.04,0.94
3.088,-0.05,-1.11,0.16,1.12
3.098,0.11,-1.08,0.40,1.16
3.108,0.37,-0.81,0.55,1.05
3.118,0.48,-0.44,0.53,0.84
3.128,0.63,-0.20,0.41,0.78
3.138,0.69,-0.04,0.30,0.76
3.148,0.64,0.04,0.33,0.72
3.158,0.64,0.11,0.32,0.72
3.168,0.69,0.29,0.29,0.81
3.178,0.60,0.36,0.28,0.75
3.188,0.48,0.20,0.25,0.58
3.198,0.40,-0.02,0.28,0.49
3.209,0.34,-0.25,0.35,0.55
3.219,0.39,-0.45,0.49,0.77
3.229,0.51,-0.55,0.64,0.98
3.239,0.64,-0.54,0.67,1.08
3.249,0.68,-0.54,0.62,1.07
3.259,0.65,-0.66,0.64,1.13
3.269,0.69,-0.79,0.60,1.21
3.279,0.74,-0.83,0.58,1.25
3.289,0.78,-0.57,0.57,1.12
3.299,0.82,-0.11,0.54,0.99
3.309,0.77,0.28,0.52,0.97
3.319,0.61,0.40,0.51,0.89
3.329,0.47,0.28,0.52,0.75
3.339,0.40,0.17,0.60,0.74
3.349,0.48,0.26,0.80,0.97
3.359,0.71,0.57,1.03,1.38
3.369,0.91,0.91,1.16,1.73
3.379,1.09,1.24,1.03,1.95
3.390,1.27,1.73,0.49,2.20
3.399,1.06,2.23,0.06,2.47
3.410,0.94,2.42,0.18,2.60
3.420,1.25,2.41,0.60,2.78
3.430,1.19,3.05,0.81,3.37
3.440,0.40,4.02,0.62,4.09
3.450,-0.65,4.73,0.25,4.78
3.460,-1.44,4.95,0.22,5.16
3.470,-1.51,4.57,0.33,4.82
3.480,-0.94,3.70,0.11,3.82
3.490,-0.66,2.77,-0.50,2.89
3.500,-0.80,1.98,-1.37,2.54
3.510,-0.80,1.25,-2.21,2.66
3.520,-0.75,0.57,-2.60,2.77
3.530,-0.85,-0.01,-2.57,2.71
3.540,-0.91,-0.37,-2.27,2.48
3.551,-0.96,-0.33,-1.95,2.20
3.561,-0.87,0.06,-1.69,1.90
3.571,-0.71,0.51,-1.69,1.90
3.581,-0.68,0.83,-1.65,1.97
3.591,-0.72,0.97,-1.39,1.84
3.601,-0.67,0.90,-1.04,1.53
3.611,-0.60,0.63,-0.72,1.13
3.621,-0.46,0.28,-0.50,0.73
3.631,-0.32,-0.16,-0.27,0.45
3.641,-0.23,-0.58,-0.02,0.62
3.651,-0.13,-0.87,0.06,0.89
3.661,0.00,-0.94,-0.07,0.94
3.671,0.08,-0.99,-0.21,1.01
3.681,0.03,-1.01,-0.28,1.05
3.691,-0.05,-1.02,-0.53,1.15
3.701,-0.18,-1.01,-0.75,1.27
3.711,-0.38,-1.07,-0.81,1.40
3.721,-0.62,-1.22,-0.83,1.60
3.731,-0.87,-1.43,-0.88,1.89
3.742,-1.03,-1.63,-0.72,2.06
3.752,-1.01,-1.79,-0.50,2.11
3.762,-0.74,-1.93,-0.49,2.12
3.772,-0.61,-1.86,-0.53,2.03
3.782,-0.52,-1.62,-0.43,1.75
3.792,-0.46,-1.52,-0.40,1.64
3.802,-0.39,-1.53,-0.37,1.62
3.812,-0.27,-1.74,-0.39,1.80
3.822,-0.35,-1.91,-0.31,1.96
3.832,-0.27,-1.92,-0.02,1.93
3.842,-0.09,-1.82,0.08,1.83
3.852,0.05,-1.72,-0.06,1.72
3.862,0.20,-1.60,-0.20,1.62
3.872,0.36,-1.48,-0.25,1.55
3.882,0.50,-1.41,-0.17,1.50
3.893,0.51,-1.35,-0.03,1.45
3.902,0.42,-1.32,-0.01,1.38
3.912,0.26,-1.29,0.01,1.32
3.923,0.04,-1.16,0.07,1.17
3.933,-0.08,-1.06,0.21,1.08
3.943,-0.11,-0.90,0.30,0.96
3.953,-0.05,-0.72,0.45,0.85
3.963,0.13,-0.46,0.45,0.66
3.973,0.42,-0.23,0.47,0.67
3.983,0.84,-0.44,1.10,1.45
3.993,1.14,-0.66,0.87,1.58
4.003,1.19,-0.65,0.18,1.36
4.013,0.94,-0.50,0.04,1.07
4.023,0.60,-0.32,0.27,0.73
4.033,0.29,-0.30,0.64,0.76
4.043,-0.09,-0.35,0.77,0.85
4.053,-0.46,-0.33,0.59,0.81
4.063,-0.60,-0.31,0.39,0.78
4.074,-0.61,-0.30,0.30,0.74
4.083,-0.57,-0.23,0.35,0.71
4.094,-0.57,0.04,0.47,0.74
4.104,-0.45,0.45,0.70,0.95
4.114,-0.23,0.89,0.79,1.21
4.124,0.24,1.18,0.73,1.40
4.134,0.74,1.23,0.59,1.56
4.144,0.96,1.04,0.69,1.57
4.154,0.85,0.69,0.92,1.43
4.164,0.68,0.37,0.87,1.16
4.174,0.60,0.16,0.73,0.95
4.184,0.40,0.14,0.61,0.74
4.194,0.11,0.23,0.52,0.58
4.204,-0.11,0.44,0.58,0.74
4.214,-0.22,0.74,0.53,0.94
4.224,-0.43,0.67,0.93,1.22
4.234,-0.63,0.02,1.42,1.55
4.244,-0.56,0.16,0.95,1.11
4.255,-0.54,1.38,0.49,1.56
4.264,-0.89,2.77,0.17,2.91
4.275,-1.30,3.30,0.34,3.56
4.285,-1.54,2.79,0.81,3.29
4.295,-1.34,2.05,1.49,2.87
4.305,-0.84,1.80,1.81,2.69
4.315,-0.16,1.70,1.72,2.42
4.325,0.43,1.77,1.35,2.26
4.335,0.34,1.86,0.82,2.07
4.345,-0.16,1.75,0.51,1.83
4.355,-0.49,1.78,0.28,1.87
4.365,-0.72,1.94,-0.08,2.07
4.375,-0.80,1.93,-0.50,2.15
4.385,-0.59,1.63,-0.73,1.88
4.395,-0.22,1.18,-0.92,1.51
4.405,0.12,0.90,-1.09,1.42
4.415,0.40,0.65,-1.17,1.39
4.426,0.52,0.39,-1.25,1.41
4.436,0.56,0.14,-1.36,1.48
4.446,0.43,-0.07,-1.40,1.46
4.456,0.22,-0.24,-1.45,1.49
4.466,-0.03,-0.38,-1.52,1.57
4.476,-0.34,-0.51,-1.46,1.58
4.486,-0.53,-0.63,-1.25,1.50
4.496,-0.52,-0.76,-1.01,1.36
4.506,-0.42,-0.92,-0.72,1.24
4.516,-0.34,-1.06,-0.56,1.24
4.526,-0.25,-1.18,-0.56,1.33
4.536,-0.15,-1.30,-0.59,1.44
4.546,0.00,-1.43,-0.60,1.55
4.556,0.18,-1.49,-0.60,1.61
4.566,0.36,-1.51,-0.51,1.64
4.576,0.49,-1.54,-0.48,1.68
4.586,0.50,-1.59,-0.52,1.74
4.596,0.40,-1.54,-0.54,1.68
4.606,0.40,-1.56,-0.64,1.74
4.617,0.36,-1.60,-0.66,1.77
4.627,0.33,-1.74,-0.67,1.89
4.637,0.40,-1.88,-0.73,2.06
4.647,0.43,-1.93,-0.71,2.10
4.657,0.44,-1.94,-0.47,2.04
4.667,0.46,-1.97,-0.23,2.03
4.677,0.53,-1.87,-0.23,1.95
4.687,0.53,-1.69,-0.27,1.79
4.697,0.61,-1.37,-0.42,1.55
4.707,0.68,-1.03,-0.39,1.30
4.717,0.64,-0.96,-0.18,1.17
4.727,0.64,-1.06,-0.02,1.24
4.737,0.67,-1.15,0.16,1.34
4.747,0.75,-1.06,0.27,1.33
4.757,0.86,-0.79,0.17,1.18
4.767,0.90,-0.54,-0.08,1.06
4.777,0.87,-0.27,-0.25,0.94
4.787,0.74,-0.11,-0.24,0.79
4.798,0.68,-0.11,-0.12,0.70
4.808,0.74,-0.13,-0.03,0.76
4.818,0.83,-0.14,0.12,0.85
4.828,0.83,-0.12,0.29,0.89
4.838,0.82,-0.01,0.37,0.90
4.848,0.76,0.14,0.28,0.83
4.858,0.57,0.20,0.11,0.62
4.868,0.23,0.23,-0.02,0.33
4.878,-0.15,0.18,0.01,0.23
4.888,-0.30,-0.03,0.09,0.31
4.898,-0.30,-0.17,0.21,0.40
4.908,-0.25,-0.35,0.45,0.63
4.918,-0.24,-0.60,0.57,0.86
4.929,-0.20,-0.91,0.63,1.13
4.938,0.04,-1.06,0.78,1.31
4.948,0.47,-0.88,0.86,1.32
4.958,0.84,-0.48,0.82,1.27
4.969,1.08,-0.02,0.68,1.28
4.979,1.15,0.27,0.67,1.36
4.989,1.10,0.38,0.80,1.41
4.999,1.08,0.44,0.99,1.53
5.009,1.07,0.52,1.25,1.73
5.019,1.01,0.62,1.51,1.92
5.029,1.08,0.79,1.44,1.96
5.039,1.36,1.07,1.16,2.08
5.049,1.79,1.60,1.06,2.63
5.059,2.18,2.48,1.03,3.46
5.069,2.23,3.55,0.73,4.25
5.079,1.91,4.61,-0.02,4.99
5.089,1.36,5.34,-0.37,5.52
5.099,0.91,5.66,-0.14,5.74
5.109,0.60,5.70,0.06,5.73
5.119,0.09,5.37,0.01,5.37
5.130,-0.25,4.55,-0.15,4.56
5.140,-0.07,3.73,-0.63,3.79
5.150,-0.11,3.12,-1.35,3.40
5.160,-0.65,2.49,-2.05,3.29
5.170,-1.23,1.79,-2.52,3.33
5.180,-1.54,0.98,-2.72,3.28
5.190,-1.60,0.03,-2.71,3.15
5.200,-1.56,-0.75,-2.37,2.94
5.210,-1.37,-1.18,-1.66,2.46
5.220,-1.01,-1.26,-0.95,1.88
5.230,-0.58,-0.98,-0.57,1.27
5.240,-0.34,-0.45,-0.41,0.70
5.250,-0.19,-0.08,-0.27,0.34
5.260,-0.36,0.04,-0.11,0.38
5.270,-0.47,-0.08,0.08,0.48
5.280,-0.31,-0.24,0.36,0.53
5.290,-0.23,-0.25,0.38,0.51
5.300,-0.18,-0.29,0.25,0.42
5.311,0.21,-0.20,0.17,0.34
5.321,0.43,-0.27,0.05,0.51
5.331,0.12,-0.65,-0.22,0.70
5.341,-0.17,-1.05,-0.33,1.11
5.351,-0.37,-1.35,-0.29,1.43
5.361,-0.41,-1.66,-0.31,1.74
5.371,-0.36,-1.92,-0.39,2.00
5.381,-0.43,-2.20,-0.44,2.28
5.391,-0.54,-2.51,-0.42,2.60
5.401,-0.59,-2.63,-0.32,2.71
5.411,-0.58,-2.59,-0.40,2.69
5.421,-0.62,-2.41,-0.55,2.55
5.431,-0.65,-2.12,-0.42,2.26
5.441,-0.58,-1.77,-0.16,1.87
5.451,-0.52,-1.49,-0.00,1.57
5.461,-0.47,-1.32,-0.10,1.40
5.471,-0.40,-1.34,-0.29,1.43
5.481,-0.45,-1.42,-0.34,1.53
5.492,-0.53,-1.58,-0.30,1.69
5.502,-0.59,-1.68,-0.08,1.78
5.512,-0.64,-1.64,0.16,1.77
5.522,-0.51,-1.70,0.19,1.79
5.532,-0.23,-1.76,0.05,1.77
5.542,0.00,-1.84,-0.05,1.84
5.552,0.18,-1.93,0.08,1.94
5.562,0.33,-1.93,0.22,1.97
5.572,0.46,-1.74,0.36,1.84
5.582,0.56,-1.43,0.38,1.58
5.592,0.63,-1.16,0.26,1.34
5.602,0.58,-0.94,0.21,1.13
5.612,0.44,-0.81,0.32,0.97
5.622,0.30,-0.67,0.45,0.86
5.632,0.20,-0.54,0.69,0.90
5.642,0.20,-0.39,0.88,0.98
5.652,0.24,-0.23,1.02,1.08
5.663,0.25,-0.16,1.21,1.25
5.673,0.35,-0.18,1.24,1.30
5.683,0.43,-0.22,1.12,1.22
5.693,0.44,-0.22,1.11,1.22
5.703,0.50,-0.20,1.14,1.26
5.713,0.64,-0.12,1.23,1.39
5.723,0.71,0.04,1.42,1.59
5.733,0.80,0.35,1.51,1.74
5.743,0.90,0.72,1.45,1.85
5.753,1.02,0.92,1.69,2.18
5.763,1.22,0.88,1.98,2.48
5.773,1.57,1.32,1.81,2.73
5.783,1.64,2.61,1.51,3.43
5.793,1.27,4.07,1.12,4.40
5.803,0.58,4.83,1.18,5.00
5.813,-0.36,4.57,1.70,4.89
5.823,-1.11,3.91,1.99,4.53
5.833,-1.30,3.97,1.71,4.51
5.844,-1.28,4.58,0.98,4.86
5.854,-1.45,4.85,0.90,5.15
5.864,-1.46,4.56,0.87,4.87
5.874,-1.13,3.65,0.55,3.86
5.884,-0.76,2.61,0.02,2.72
5.894,-0.51,1.61,-0.42,1.74
5.904,-0.35,0.68,-0.62,0.99
5.914,-0.35,-0.04,-0.55,0.65
5.924,-0.29,-0.64,-0.61,0.93
5.934,-0.36,-1.15,-0.73,1.41
5.944,-0.46,-1.43,-0.76,1.68
5.954,-0.43,-1.34,-0.81,1.63
5.964,-0.37,-1.01,-0.90,1.40
5.974,-0.37,-0.65,-1.00,1.24
5.984,-0.42,-0.35,-1.09,1.22
5.994,-0.47,-0.12,-1.15,1.25
6.004,-0.48,-0.08,-1.10,1.20
6.015,-0.25,-0.17,-0.99,1.03
6.025,-0.00,-0.31,-0.92,0.97
6.035,0.18,-0.54,-0.72,0.92
6.045,0.29,-0.80,-0.49,0.98
6.055,0.33,-1.11,-0.44,1.25
6.065,0.25,-1.28,-0.54,1.41
6.075,0.15,-1.43,-0.68,1.59
6.085,0.21,-1.86,-0.86,2.06
6.095,0.17,-2.38,-1.05,2.60
6.105,-0.05,-2.71,-1.20,2.97
6.115,-0.26,-3.08,-1.13,3.29
6.125,-0.24,-3.39,-0.92,3.52
6.135,-0.35,-3.36,-0.72,3.46
6.145,-0.50,-3.38,-0.54,3.46
6.155,-0.34,-3.40,-0.48,3.45
6.165,0.02,-3.38,-0.39,3.41
6.175,0.31,-3.12,-0.33,3.15
6.186,0.62,-2.64,-0.29,2.72
6.196,0.86,-2.11,-0.26,2.29
6.206,1.03,-1.58,-0.28,1.90
6.216,1.22,-1.02,-0.42,1.64
6.226,1.31,-0.47,-0.56,1.50
6.236,1.17,-0.25,-0.73,1.40
6.246,0.93,-0.20,-0.72,1.20
6.256,0.80,-0.14,-0.49,0.95
6.266,0.84,-0.19,-0.17,0.88
6.276,0.69,-0.17,0.06,0.71
6.286,0.57,-0.23,0.12,0.62
6.296,0.51,-0.39,0.08,0.64
6.306,0.39,-0.51,0.19,0.67
6.316,0.23,-0.41,0.43,0.64
6.326,0.07,-0.23,0.65,0.69
6.336,0.01,-0.12,0.89,0.89
6.347,0.05,-0.05,0.91,0.92
6.356,0.16,0.00,0.89,0.91
6.367,0.33,0.07,0.85,0.92
6.376,0.50,0.11,0.78,0.93
6.387,0.60,0.06,0.76,0.97
6.397,0.65,0.03,0.67,0.93
6.407,0.72,0.14,0.56,0.93
6.417,0.85,0.42,0.54,1.09
6.427,0.92,0.81,0.45,1.30
6.437,0.88,1.09,0.46,1.48
6.447,0.85,1.28,0.75,1.71
6.457,0.90,1.44,1.11,2.03
6.467,0.94,1.71,1.29,2.34
6.477,0.80,2.02,1.32,2.54
6.487,0.75,2.34,1.14,2.71
6.497,1.02,2.62,1.15,3.04
6.507,1.14,3.19,1.34,3.65
6.517,0.59,4.12,1.07,4.30
6.528,-0.45,4.71,0.42,4.75
6.537,-0.94,4.62,-0.40,4.73
6.548,-1.02,4.28,-0.82,4.47
6.558,-0.94,3.74,-0.72,3.92
6.568,-0.51,3.06,-0.91,3.23
6.578,-0.38,2.49,-1.60,2.98
6.588,-0.49,1.95,-2.29,3.05
6.598,-0.52,1.29,-2.55,2.91
6.608,-0.47,0.63,-2.58,2.70
6.618,-0.48,0.22,-2.64,2.69
6.628,-0.46,0.14,-2.52,2.57
6.638,-0.44,0.24,-2.07,2.13
6.648,-0.39,0.40,-1.60,1.70
6.658,-0.34,0.55,-1.20,1.37
6.668,-0.35,0.50,-0.69,0.92
6.678,-0.54,0.25,-0.49,0.77
6.689,-0.87,0.08,-0.48,1.00
6.699,-1.13,-0.02,-0.37,1.18
6.709,-1.08,-0.13,-0.22,1.11
6.718,-0.85,-0.02,-0.16,0.87
6.729,-0.32,0.28,-0.15,0.45
6.739,-0.16,0.17,-0.26,0.35
6.749,-0.39,-0.39,-0.28,0.62
6.759,-0.60,-0.86,-0.17,1.06
6.769,-0.76,-1.22,-0.13,1.44
6.779,-0.83,-1.53,-0.20,1.75
6.789,-0.92,-1.77,-0.28,2.02
6.799,-1.05,-2.07,-0.26,2.33
6.809,-0.97,-2.33,-0.15,2.53
6.819,-0.65,-2.50,-0.08,2.59
6.829,-0.16,-2.49,-0.11,2.50
6.839,0.38,-2.41,-0.27,2.45
6.849,0.83,-2.40,-0.41,2.57
6.859,0.96,-2.43,-0.42,2.65
6.869,0.78,-2.41,-0.41,2.57
6.879,0.60,-2.44,-0.54,2.57
6.890,0.35,-2.41,-0.53,2.49
6.900,-0.01,-2.40,-0.44,2.44
6.910,-0.37,-2.36,-0.22,2.40
6.920,-0.67,-2.28,0.10,2.38
6.930,-0.92,-2.07,0.22,2.28
6.940,-0.92,-1.87,0.12,2.09
6.950,-0.92,-1.61,0.06,1.85
6.960,-0.92,-1.40,0.06,1.68
6.970,-0.80,-1.26,0.10,1.50
6.980,-0.65,-1.11,0.18,1.30
6.990,-0.46,-1.03,0.38,1.19
7.000,-0.22,-0.95,0.64,1.17
7.010,0.05,-0.82,0.74,1.10
7.020,0.38,-0.71,0.81,1.14
7.030,0.73,-0.64,0.87,1.31
7.040,0.97,-0.54,0.81,1.38
7.050,1.05,-0.42,0.76,1.36
7.060,0.96,-0.29,0.82,1.30
7.071,0.81,-0.12,0.80,1.15
7.081,0.64,0.08,0.78,1.01
7.091,0.48,0.20,0.76,0.92
7.101,0.34,0.17,0.81,0.90
7.111,0.34,0.03,0.98,1.04
7.121,0.51,-0.13,1.06,1.18
7.131,0.74,-0.27,1.13,1.38
7.141,0.90,-0.31,1.25,1.57
7.151,0.96,-0.17,1.40,1.71
7.161,1.03,0.05,1.57,1.88
7.171,1.10,0.27,1.50,1.88
7.181,1.10,0.31,1.51,1.90
7.191,1.10,0.19,1.64,1.98
7.201,1.01,0.72,0.94,1.56
7.211,0.75,2.10,0.28,2.25
7.221,0.28,3.87,0.05,3.88
7.232,-0.52,5.21,0.15,5.24
7.242,-1.70,5.30,0.45,5.59
7.252,-2.45,4.52,1.14,5.26
7.262,-2.25,4.16,1.45,4.95
7.272,-1.75,4.44,0.96,4.86
7.282,-1.41,4.42,0.85,4.71
7.292,-0.85,3.81,1.07,4.05
7.302,-0.39,2.81,0.79,2.94
7.312,-0.02,1.82,0.28,1.84
7.322,0.27,0.97,-0.20,1.03
7.332,0.54,0.41,-0.43,0.80
7.342,0.58,0.00,-0.46,0.74
7.352,0.45,-0.38,-0.63,0.86
7.362,0.20,-0.76,-1.01,1.28
7.372,-0.03,-0.99,-1.24,1.59
7.382,-0.15,-1.04,-1.31,1.68
7.392,-0.32,-0.87,-1.42,1.69
7.402,-0.69,-0.56,-1.39,1.65
7.412,-1.16,-0.19,-1.29,1.75
7.423,-1.42,0.10,-1.13,1.81
7.433,-1.29,0.17,-0.99,1.63
7.443,-1.03,0.07,-0.89,1.36
7.453,-0.75,-0.18,-0.73,1.06
7.463,-0.52,-0.58,-0.57,0.96
7.473,-0.44,-1.03,-0.28,1.15
7.483,-0.30,-1.42,-0.03,1.45
7.493,-0.05,-1.80,0.06,1.80
7.503,0.30,-2.15,0.01,2.17
7.513,0.65,-2.52,-0.17,2.60
7.523,0.84,-2.71,-0.39,2.86
7.533,1.05,-2.81,-0.58,3.06
7.543,1.08,-2.71,-0.61,2.98
7.553,1.07,-2.50,-0.56,2.78
7.563,1.01,-2.45,-0.51,2.70
7.573,0.90,-2.29,-0.58,2.52
7.583,0.90,-2.03,-0.72,2.33
7.594,0.84,-1.79,-0.74,2.11
7.604,0.75,-1.61,-0.76,1.93
7.614,0.61,-1.39,-0.81,1.72
7.624,0.47,-1.12,-0.77,1.43
7.634,0.36,-0.96,-0.59,1.18
7.644,0.26,-1.00,-0.47,1.13
7.654,0.27,-1.19,-0.34,1.26
7.664,0.31,-1.28,-0.38,1.37
7.674,0.38,-1.25,-0.34,1.35
7.684,0.49,-1.16,-0.32,1.29
7.694,0.44,-1.01,-0.36,1.16
7.704,0.25,-1.02,-0.35,1.11
7.714,0.09,-1.08,-0.20,1.11
7.724,-0.01,-1.12,0.06,1.13
7.734,-0.04,-1.03,0.39,1.10
7.744,-0.04,-0.75,0.65,0.99
7.754,0.12,-0.52,0.72,0.89
7.764,0.41,-0.34,0.57,0.78
7.775,0.62,-0.10,0.55,0.83
7.785,0.72,0.11,0.67,0.99
7.795,0.76,0.26,0.75,1.10
7.805,0.80,0.24,0.75,1.12
7.815,0.80,0.19,0.90,1.22
7.825,0.92,0.23,1.13,1.47
7.835,1.11,0.44,1.28,1.75
7.845,1.32,0.79,1.44,2.11
7.855,1.54,1.26,1.55,2.52
7.865,1.70,1.82,1.59,2.96
7.875,1.80,2.31,1.44,3.27
7.885,1.79,2.64,1.23,3.42
7.895,1.58,3.00,1.16,3.58
7.905,1.40,3.34,0.95,3.75
7.916,1.41,3.53,0.60,3.85
7.925,1.48,3.58,0.54,3.92
7.935,1.36,3.77,0.39,4.03
7.946,0.54,4.08,-0.10,4.11
7.956,-0.48,4.16,-0.51,4.22
7.966,-1.31,4.02,-0.49,4.26
7.976,-1.56,3.79,-0.75,4.16
7.986,-1.58,3.29,-1.51,3.95
7.996,-1.82,2.34,-2.27,3.73
8.006,-2.08,1.21,-2.46,3.44
8.016,-2.00,0.20,-2.22,3.00
8.026,-1.48,-0.48,-1.88,2.44
8.036,-0.85,-0.59,-1.70,1.99
8.046,-0.19,-0.20,-1.78,1.80
8.056,0.40,0.30,-1.89,1.95
8.066,0.60,0.67,-1.62,1.86
8.076,0.47,0.88,-0.95,1.38
8.086,0.25,0.85,-0.43,0.98
8.097,-0.06,0.67,-0.25,0.72
8.107,-0.40,0.48,-0.30,0.69
8.117,-0.75,0.28,-0.37,0.89
8.127,-0.62,0.37,-0.26,0.77
8.137,-0.33,0.28,-0.16,0.46
8.147,-0.45,-0.42,-0.14,0.63
8.157,-0.63,-1.16,-0.14,1.33
8.167,-0.48,-1.52,-0.34,1.63
8.177,-0.33,-1.82,-0.70,1.98
8.187,-0.37,-2.04,-0.99,2.30
8.197,-0.53,-2.24,-1.06,2.54
8.207,-0.73,-2.44,-0.92,2.70
8.217,-0.85,-2.72,-0.67,2.92
8.227,-0.89,-2.97,-0.43,3.13
8.237,-0.84,-2.97,-0.33,3.10
8.247,-0.56,-2.85,-0.36,2.93
8.257,-0.16,-2.48,-0.35,2.51
8.267,0.19,-2.15,-0.40,2.20
8.278,0.40,-1.96,-0.55,2.07
8.288,0.48,-1.97,-0.61,2.12
8.298,0.43,-2.02,-0.41,2.10
8.308,0.28,-2.02,-0.19,2.05
8.318,0.27,-2.16,-0.19,2.18
8.328,0.11,-2.32,-0.25,2.33
8.338,-0.08,-2.32,-0.24,2.34
8.348,-0.27,-2.22,-0.09,2.23
8.358,-0.41,-1.98,0.08,2.02
8.368,-0.45,-1.66,0.23,1.74
8.378,-0.41,-1.36,0.42,1.49
8.388,-0.29,-1.08,0.71,1.32
8.398,0.00,-0.90,0.85,1.24
8.408,0.28,-0.78,0.75,1.11
8.418,0.40,-0.62,0.51,0.90
8.428,0.43,-0.46,0.41,0.75
8.438,0.39,-0.37,0.46,0.71
8.448,0.41,-0.28,0.51,0.71
8.458,0.40,-0.17,0.63,0.77
8.468,0.44,-0.06,0.79,0.91
8.479,0.53,0.05,0.89,1.04
8.489,0.56,0.11,0.92,1.08
8.499,0.54,0.21,0.76,0.96
8.509,0.50,0.29,0.59,0.83
8.519,0.38,0.30,0.74,0.88
8.529,0.32,0.26,0.99,1.07
8.539,0.45,0.28,1.17,1.29
8.549,0.59,0.41,1.38,1.56
8.559,0.76,0.65,1.50,1.80
8.569,1.02,0.94,1.50,2.04
8.579,1.27,1.14,1.49,2.26
8.589,1.42,1.25,1.53,2.43
8.599,1.48,1.34,1.64,2.59
8.609,1.49,1.20,2.05,2.81
8.619,1.44,1.25,2.25,2.95
8.629,1.21,2.30,1.85,3.19
8.640,0.46,3.69,1.93,4.19
8.650,-0.37,4.55,2.13,5.04
8.660,-0.76,5.27,1.97,5.68
8.670,-1.28,5.60,1.54,5.94
8.680,-1.71,5.36,0.93,5.71
8.690,-1.56,4.49,0.55,4.79
8.700,-1.01,3.37,0.28,3.53
8.710,-0.55,2.46,0.09,2.52
8.720,-0.01,1.80,-0.24,1.82
8.730,0.37,1.26,-0.49,1.40
8.740,0.44,0.55,-0.77,1.05
8.750,0.15,-0.30,-1.11,1.16
8.760,-0.29,-1.06,-1.31,1.71
8.770,-0.77,-1.40,-1.42,2.14
8.780,-1.38,-1.26,-1.33,2.29
8.790,-1.83,-0.81,-1.16,2.31
8.801,-2.01,-0.28,-1.00,2.26
8.811,-1.76,0.02,-0.89,1.97
8.821,-1.22,-0.02,-0.90,1.52
8.831,-0.71,-0.25,-0.91,1.18
8.841,-0.34,-0.59,-0.73,1.00
8.851,-0.23,-0.97,-0.53,1.13
8.861,-0.31,-1.33,-0.39,1.42
8.871,-0.31,-1.83,-0.35,1.89
8.881,-0.28,-2.32,-0.38,2.37
8.891,-0.15,-2.84,-0.43,2.88
8.901,-0.07,-3.27,-0.62,3.33
8.911,0.13,-3.57,-0.74,3.64
8.921,0.68,-3.72,-0.74,3.85
8.931,1.21,-3.91,-0.73,4.16
8.941,1.50,-4.02,-0.69,4.35
8.951,1.40,-3.84,-0.63,4.13
8.961,1.33,-3.59,-0.61,3.87
8.972,1.19,-3.14,-0.59,3.41
8.982,0.85,-2.40,-0.67,2.63
8.991,0.46,-1.67,-0.56,1.82
9.002,0.21,-1.08,-0.45,1.18
9.012,0.21,-0.57,-0.34,0.70
9.022,0.27,-0.26,-0.20,0.42
9.032,0.32,-0.16,-0.19,0.40
9.042,0.37,-0.25,-0.30,0.53
9.052,0.54,-0.52,-0.21,0.78
9.062,0.77,-0.59,-0.06,0.98
9.072,0.82,-0.49,-0.08,0.96
9.082,0.66,-0.43,-0.07,0.80
9.092,0.41,-0.47,0.02,0.62
9.102,0.17,-0.57,0.11,0.61
9.112,-0.01,-0.68,0.30,0.74
9.122,0.02,-0.67,0.52,0.85
9.133,0.17,-0.65,0.57,0.88
9.142,0.36,-0.57,0.54,0.87
9.152,0.57,-0.53,0.41,0.88
9.163,0.72,-0.53,0.35,0.96
9.173,0.70,-0.47,0.40,0.93
9.183,0.60,-0.33,0.42,0.81
9.193,0.55,-0.12,0.39,0.68
9.203,0.46,0.04,0.29,0.54
9.213,0.29,0.10,0.17,0.36
9.223,0.10,0.12,0.16,0.23
9.233,-0.02,0.20,0.30,0.36
9.243,-0.05,0.36,0.48,0.60
9.253,0.01,0.51,0.66,0.83
9.263,0.19,0.44,0.84,0.96
9.273,0.51,0.23,1.05,1.19
9.283,0.93,0.12,1.30,1.61
9.293,1.41,0.25,1.61,2.15
9.303,1.83,0.60,1.80,2.63
9.313,2.10,1.04,1.82,2.97
9.323,2.19,1.50,1.93,3.29
9.334,2.23,2.00,2.16,3.69
9.344,2.37,2.57,2.51,4.31
9.353,2.51,3.25,2.89,5.03
9.364,2.63,3.90,2.89,5.52
9.374,2.95,4.51,2.32,5.87
9.384,3.14,4.93,1.32,5.99
9.394,2.86,4.71,0.28,5.52
9.404,2.20,4.02,-0.25,4.59
9.414,1.49,3.68,-0.44,3.99
9.424,0.24,3.62,-1.19,3.82
9.434,-1.35,3.36,-2.41,4.35
9.444,-2.49,2.84,-3.62,5.23
9.454,-3.05,1.77,-4.25,5.52
9.464,-3.01,0.49,-4.03,5.05
9.474,-2.57,-0.39,-3.31,4.21
9.484,-2.13,-0.69,-2.35,3.24
9.494,-1.71,-0.53,-1.58,2.39
9.504,-1.46,-0.16,-1.16,1.87
9.515,-1.28,0.31,-0.91,1.60
9.525,-0.98,0.75,-0.72,1.43
9.535,-0.60,0.88,-0.51,1.18
9.545,-0.24,0.55,-0.22,0.64
9.555,-0.15,0.05,0.17,0.23
9.565,-0.29,-0.06,0.55,0.63
9.575,-0.06,0.00,0.69,0.69
9.585,0.18,-0.04,0.64,0.66
9.595,0.12,-0.33,0.59,0.69
9.605,-0.10,-0.66,0.50,0.83
9.615,0.12,-0.55,0.19,0.59
9.625,0.45,-0.49,-0.36,0.76
9.635,-0.06,-0.87,-0.82,1.20
9.645,-0.67,-1.38,-0.99,1.83
9.655,-1.08,-1.77,-1.02,2.32
9.665,-1.28,-1.87,-0.83,2.41
9.675,-1.43,-1.85,-0.61,2.42
9.686,-1.71,-1.85,-0.47,2.57
9.696,-1.73,-2.00,-0.36,2.67
9.706,-1.45,-2.13,-0.31,2.59
9.716,-1.05,-2.20,-0.34,2.46
9.726,-0.52,-2.44,-0.53,2.55
9.736,0.05,-2.72,-0.62,2.79
9.746,0.38,-2.99,-0.51,3.06
9.756,0.58,-3.31,-0.47,3.39
9.766,0.63,-3.42,-0.43,3.51
9.776,0.59,-3.31,-0.35,3.38
9.786,0.54,-3.05,-0.21,3.11
9.796,0.41,-2.80,-0.02,2.83
9.806,0.18,-2.52,0.12,2.53
9.816,0.02,-2.17,0.19,2.18
9.826,-0.11,-1.96,0.31,1.99
9.836,-0.34,-1.85,0.44,1.93
9.846,-0.59,-1.84,0.47,1.99
9.856,-0.71,-1.85,0.58,2.06
9.867,-0.65,-1.90,0.64,2.11
9.877,-0.26,-1.89,0.72,2.04
9.887,0.26,-1.79,0.75,1.96
9.897,0.74,-1.58,0.78,1.92
9.907,1.08,-1.26,0.89,1.88
9.917,1.40,-0.91,1.01,1.96
9.927,1.69,-0.70,1.18,2.17
9.937,1.80,-0.62,1.49,2.42
9.947,1.79,-0.50,1.59,2.45
9.957,1.66,-0.39,1.43,2.22
9.967,1.41,-0.38,1.26,1.93
9.977,1.04,-0.33,0.98,1.47
9.987,0.57,-0.11,0.76,0.95
9.997,-0.05,0.19,1.17,1.19
10.007,-0.60,0.44,1.61,1.77
10.017,-0.82,0.51,1.91,2.14
10.027,-0.60,0.45,1.89,2.03
10.038,-0.07,0.53,1.51,1.61
10.048,0.39,0.69,1.37,1.58
10.058,0.74,0.75,1.76,2.05
10.068,0.97,0.70,2.19,2.49
10.078,1.06,0.49,2.45,2.71
10.088,1.39,0.27,2.67,3.02
10.098,2.05,0.16,2.92,3.57
10.108,2.92,0.43,2.90,4.13
10.118,3.49,1.31,2.28,4.37
10.128,3.45,2.85,1.31,4.66
10.138,2.92,4.25,1.10,5.28
10.148,1.66,4.67,1.03,5.06
10.158,0.07,4.54,0.70,4.59
10.168,-1.52,4.30,-0.07,4.56
10.178,-2.70,3.68,-0.55,4.60
10.188,-2.89,2.99,-0.19,4.16
10.199,-2.48,2.55,0.12,3.56
10.209,-2.14,1.66,0.13,2.71
10.219,-1.59,0.50,-0.07,1.66
10.229,-0.84,-0.75,-0.22,1.14
10.239,-0.24,-1.81,-0.45,1.88
10.249,0.09,-2.48,-0.81,2.61
10.259,0.24,-2.74,-1.29,3.03
10.269,0.17,-2.82,-1.86,3.39
10.279,-0.21,-2.78,-2.25,3.58
10.289,-0.79,-2.37,-2.38,3.45
10.299,-1.33,-1.57,-2.32,3.10
10.309,-1.82,-0.64,-2.16,2.90
10.319,-2.14,0.14,-2.03,2.95
10.329,-2.02,0.51,-1.93,2.83
10.339,-1.55,0.44,-1.79,2.41
10.349,-1.04,0.12,-1.54,1.86
10.359,-0.54,-0.24,-1.29,1.41
10.369,-0.07,-0.44,-0.94,1.04
10.380,0.18,-0.56,-0.64,0.87
10.390,0.23,-0.64,-0.56,0.88
10.400,0.23,-0.79,-0.59,1.01
10.410,0.13,-1.00,-0.82,1.30
10.420,0.14,-1.06,-0.94,1.42
10.430,0.26,-1.08,-0.96,1.47
10.440,0.27,-1.14,-0.91,1.48
10.450,0.31,-1.18,-0.90,1.51
10.460,0.34,-1.07,-0.86,1.41
10.470,0.18,-0.84,-0.78,1.16
10.480,0.05,-0.43,-0.68,0.80
10.490,-0.05,-0.16,-0.64,0.66
10.500,-0.28,-0.03,-0.63,0.69
10.510,-0.41,0.02,-0.48,0.63
10.520,-0.44,-0.05,-0.31,0.54
10.530,-0.40,-0.18,-0.03,0.44
10.540,-0.18,-0.37,0.27,0.49
10.551,0.17,-0.46,0.43,0.65
10.560,0.52,-0.63,0.54,0.98
10.571,0.81,-0.78,0.55,1.25
10.581,0.98,-0.84,0.55,1.40
10.591,1.03,-0.90,0.61,1.49
10.601,0.98,-0.92,0.63,1.49
10.611,0.81,-0.92,0.64,1.38
10.621,0.67,-0.90,0.67,1.30
10.631,0.59,-0.87,0.75,1.29
10.641,0.60,-0.75,0.79,1.24
10.651,0.71,-0.58,0.76,1.19
10.661,0.90,-0.43,0.72,1.23
10.671,1.11,-0.31,0.55,1.28
10.681,1.20,-0.22,0.41,1.29
10.691,1.06,-0.17,0.44,1.16
10.701,0.87,-0.16,0.62,1.08
10.711,0.75,-0.10,0.79,1.09
10.721,0.61,0.05,0.87,1.06
10.731,0.47,0.23,0.95,1.08
10.742,0.37,0.29,1.13,1.22
10.752,0.44,0.28,1.40,1.49
10.762,0.67,0.23,1.67,1.81
10.772,0.95,0.14,1.85,2.08
10.782,1.22,0.08,1.94,2.30
10.792,1.31,0.09,2.01,2.40
10.802,1.29,0.23,2.00,2.39
10.812,1.23,0.57,1.89,2.32
10.822,1.45,1.11,1.80,2.56
10.832,1.51,1.84,1.52,2.82
10.842,1.50,2.45,1.22,3.12
10.852,1.24,2.69,0.76,3.06
10.862,0.84,2.82,0.01,2.94
10.872,0.55,3.23,-0.69,3.35
10.882,0.25,3.70,-1.67,4.06
10.892,-0.36,3.77,-2.59,4.59
10.903,-1.19,3.28,-3.13,4.69
10.913,-1.73,2.27,-3.39,4.43
10.922,-2.01,0.94,-3.50,4.15
10.933,-2.09,-0.50,-3.42,4.04
10.943,-2.18,-1.81,-3.09,4.19
10.953,-2.04,-2.91,-2.65,4.43
10.963,-1.71,-3.55,-2.32,4.57
10.973,-1.21,-3.28,-2.10,4.08
10.983,-0.54,-2.04,-1.89,2.83
10.993,-0.01,-0.45,-1.71,1.77
11.003,0.16,0.93,-1.42,1.70
11.013,0.00,1.70,-1.27,2.12
11.023,-0.31,2.13,-1.13,2.43
11.033,-0.70,2.23,-0.87,2.50
11.043,-1.29,2.15,-0.72,2.61
11.053,-1.36,2.03,-0.82,2.57
11.063,-1.08,1.88,-0.91,2.35
11.074,-0.85,1.59,-0.78,1.96
11.084,-1.04,0.91,-0.62,1.51
11.094,-0.81,0.23,-0.60,1.03
11.104,-0.44,-0.34,-0.70,0.90
11.114,-0.23,-0.85,-0.82,1.20
11.124,-0.05,-1.19,-0.61,1.33
11.134,0.04,-1.36,-0.49,1.44
11.144,-0.05,-1.31,-0.38,1.36
11.154,-0.22,-1.39,-0.15,1.42
11.164,-0.43,-1.44,0.13,1.51
11.174,-0.61,-1.47,0.32,1.62
11.184,-0.72,-1.49,0.40,1.70
11.194,-0.80,-1.39,0.55,1.70
11.204,-0.73,-1.17,0.62,1.51
11.214,-0.54,-0.89,0.49,1.15
11.224,-0.35,-0.59,0.28,0.74
11.235,-0.19,-0.41,0.22,0.50
11.244,-0.16,-0.24,0.21,0.35
11.255,-0.15,-0.13,0.04,0.20
11.264,-0.06,-0.04,-0.09,0.11
11.275,0.02,0.00,-0.18,0.18
11.285,0.04,-0.08,-0.11,0.14
11.295,0.04,-0.15,0.17,0.23
11.305,0.09,-0.09,0.46,0.48
11.315,0.26,-0.01,0.74,0.79
11.325,0.47,0.00,1.01,1.11
11.335,0.64,-0.09,1.15,1.32
11.345,0.73,-0.30,1.26,1.49
11.355,0.79,-0.57,1.26,1.59
11.365,0.83,-0.82,1.42,1.84
11.375,0.93,-0.83,1.54,1.98
11.385,0.98,-0.56,1.48,1.86
11.395,0.96,-0.12,1.36,1.67
11.405,0.89,0.39,1.29,1.62
11.415,0.88,0.86,1.37,1.84
11.425,0.95,1.22,1.48,2.14
11.436,0.94,1.44,1.36,2.19
11.446,0.71,1.46,1.26,2.06
11.456,0.36,1.40,1.19,1.87
11.466,0.23,1.94,1.06,2.22
11.476,-0.04,3.39,0.68,3.46
11.486,-0.55,4.60,0.53,4.67
11.496,-1.18,3.95,0.83,4.21
11.506,-0.99,2.90,1.09,3.25
11.516,-0.96,2.72,0.26,2.90
11.526,-1.18,2.72,-0.73,3.05
11.536,-1.32,2.52,-1.07,3.04
11.546,-1.49,1.92,-0.97,2.62
11.556,-1.47,1.06,-1.24,2.20
11.566,-1.45,0.16,-1.65,2.20
11.576,-1.41,-0.43,-1.82,2.34
11.586,-1.42,-0.71,-1.88,2.46
11.596,-1.38,-0.76,-1.76,2.36
11.607,-1.38,-0.51,-1.38,2.02
11.617,-1.28,-0.01,-1.19,1.75
11.627,-1.14,0.50,-1.30,1.80
11.637,-0.98,0.86,-1.55,2.03
11.647,-0.82,0.96,-1.77,2.17
11.657,-0.69,0.89,-1.82,2.14
11.667,-0.52,0.72,-1.72,1.93
11.677,-0.44,0.52,-1.46,1.61
11.687,-0.45,0.27,-1.12,1.24
11.697,-0.47,-0.06,-0.91,1.03
11.707,-0.53,-0.37,-0.71,0.96
11.717,-0.37,-0.71,-0.55,0.98
11.727,-0.20,-1.09,-0.50,1.22
11.737,-0.09,-1.37,-0.45,1.44
11.747,0.01,-1.57,-0.45,1.64
11.757,0.13,-1.78,-0.46,1.84
11.767,0.23,-2.03,-0.44,2.09
11.777,0.31,-2.19,-0.35,2.24
11.788,0.38,-2.29,-0.32,2.34
11.798,0.53,-2.49,-0.33,2.57
11.807,0.63,-2.34,-0.39,2.45
11.818,0.82,-2.10,-0.28,2.27
11.828,0.89,-1.92,-0.18,2.12
11.838,0.89,-1.62,-0.32,1.88
11.848,0.88,-1.34,-0.63,1.72
11.858,0.65,-1.09,-0.76,1.48
11.868,0.40,-0.97,-0.76,1.30
11.878,0.26,-1.10,-0.60,1.28
11.888,0.25,-1.25,-0.37,1.33
11.898,0.29,-1.29,-0.27,1.35
11.908,0.32,-1.16,-0.29,1.24
11.918,0.24,-0.97,-0.37,1.07
11.928,0.14,-0.79,-0.44,0.91
11.938,0.02,-0.56,-0.53,0.77
11.948,-0.13,-0.41,-0.39,0.58
11.959,-0.27,-0.46,-0.14,0.55
11.969,-0.34,-0.60,0.15,0.70
11.979,-0.13,-0.69,0.27,0.75
11.989,0.25,-0.65,0.19,0.72
11.999,0.55,-0.42,-0.06,0.69
12.009,0.58,-0.15,-0.39,0.72
12.019,0.35,-0.01,-0.55,0.66
12.029,-0.06,-0.05,-0.31,0.32
12.039,-0.25,-0.37,0.07,0.45
12.049,-0.21,-0.63,0.36,0.76
12.059,-0.04,-0.76,0.43,0.88
12.069,0.15,-0.79,0.33,0.87
12.079,0.26,-0.75,0.17,0.81
12.089,0.33,-0.52,0.02,0.61
12.099,0.26,-0.15,-0.16,0.34
12.109,0.12,0.20,-0.14,0.27
12.119,0.08,0.41,0.09,0.42
12.129,0.16,0.37,0.43,0.59
12.140,0.42,0.30,0.77,0.93
12.150,0.80,0.37,0.93,1.28
12.160,1.12,0.57,0.93,1.57
12.170,1.32,0.87,0.77,1.76
12.180,1.23,1.22,0.66,1.85
12.190,1.08,1.55,0.62,1.99
12.200,1.15,1.69,0.83,2.21
12.210,1.42,1.71,1.19,2.51
12.220,1.73,1.86,1.49,2.95
12.230,1.92,2.64,1.34,3.52
12.240,1.58,3.81,0.93,4.23
12.250,0.93,4.74,0.59,4.87
12.260,0.64,5.25,0.25,5.30
12.270,0.45,5.55,0.33,5.58
12.280,0.26,5.36,0.30,5.38
12.290,0.35,4.75,-0.34,4.77
12.301,0.34,3.89,-1.14,4.06
12.311,-0.08,2.96,-1.78,3.45
12.321,-0.78,2.02,-2.26,3.13
12.331,-1.28,1.07,-2.64,3.12
12.341,-1.55,0.21,-2.80,3.21
12.351,-1.78,-0.48,-2.65,3.23
12.361,-1.94,-0.74,-2.30,3.10
12.371,-1.84,-0.63,-1.96,2.76
12.381,-1.53,-0.29,-1.61,2.24
12.391,-1.27,0.19,-1.39,1.89
12.401,-1.13,0.50,-1.15,1.68
12.411,-1.02,0.41,-0.66,1.28
12.421,-1.18,0.25,-0.11,1.21
12.431,-1.25,0.12,0.05,1.26
12.441,-0.89,-0.20,0.16,0.92
12.451,-0.44,-0.44,0.29,0.69
12.461,-0.09,-0.57,0.15,0.60
12.471,0.23,-0.61,-0.08,0.66
12.482,0.54,-0.69,-0.27,0.92
12.491,0.41,-1.05,-0.46,1.22
12.502,0.06,-1.50,-0.62,1.63
12.512,-0.22,-2.03,-0.83,2.20
12.522,-0.41,-2.46,-1.02,2.70
12.532,-0.49,-2.65,-1.09,2.91
12.542,-0.51,-2.70,-1.00,2.92
12.552,-0.61,-2.74,-0.79,2.91
12.562,-0.68,-2.77,-0.53,2.90
12.572,-0.78,-2.64,-0.46,2.79
12.582,-0.93,-2.44,-0.37,2.63
12.592,-0.99,-2.18,-0.19,2.40
12.602,-0.93,-1.98,-0.04,2.19
12.612,-0.77,-1.83,-0.01,1.99
12.622,-0.42,-1.77,-0.02,1.82
12.632,-0.04,-1.80,0.11,1.81
12.642,0.20,-1.68,0.25,1.72
12.653,0.35,-1.63,0.28,1.69
12.663,0.26,-1.52,0.33,1.58
12.673,0.07,-1.42,0.48,1.50
12.683,-0.14,-1.41,0.47,1.50
12.693,-0.35,-1.30,0.34,1.39
12.703,-0.43,-1.16,0.28,1.27
12.713,-0.39,-0.99,0.15,1.07
12.723,-0.27,-0.86,0.13,0.91
12.733,-0.19,-0.76,0.29,0.83
12.743,0.04,-0.58,0.26,0.64
12.753,0.24,-0.41,0.34,0.58
12.763,0.26,-0.25,0.36,0.51
12.773,0.17,-0.07,0.34,0.39
12.783,0.09,0.03,0.49,0.50
12.793,0.03,0.03,0.77,0.77
12.803,0.13,-0.06,0.84,0.86
12.813,0.39,-0.22,0.78,0.90
12.824,0.62,-0.37,0.82,1.09
12.833,0.78,-0.40,0.93,1.27
12.844,0.88,-0.35,1.12,1.47
12.854,0.95,-0.20,1.28,1.61
12.864,1.02,0.04,1.33,1.67
12.874,1.02,0.30,1.40,1.76
12.884,1.06,0.59,1.46,1.90
12.894,1.12,0.93,1.32,1.97
12.904,1.10,1.07,1.27,2.00
12.914,1.01,0.87,1.60,2.08
12.924,0.84,1.22,1.37,2.01
12.934,0.47,2.66,0.97,2.87
12.944,-0.24,4.46,0.73,4.53
12.954,-1.23,5.31,0.79,5.50
12.964,-2.15,4.95,1.26,5.54
12.974,-2.42,4.39,1.63,5.27
12.984,-1.97,4.56,0.92,5.05
12.994,-1.56,4.72,0.36,4.99
13.005,-1.25,4.31,0.42,4.50
13.015,-0.97,3.42,0.33,3.57
13.025,-0.77,2.32,-0.02,2.45
13.035,-0.45,1.29,-0.40,1.42
13.045,-0.04,0.44,-0.66,0.80
13.055,0.25,-0.31,-0.82,0.91
13.065,0.28,-1.02,-0.93,1.41
13.075,0.12,-1.55,-1.05,1.87
13.085,-0.13,-1.82,-1.22,2.19
13.095,-0.43,-1.80,-1.34,2.29
13.105,-0.74,-1.48,-1.43,2.19
13.115,-1.04,-1.02,-1.32,1.96
13.125,-1.17,-0.56,-1.25,1.81
13.135,-1.17,-0.31,-1.22,1.72
13.145,-1.07,-0.29,-1.13,1.58
13.155,-0.93,-0.48,-1.02,1.46
13.165,-0.75,-0.80,-0.93,1.44
13.175,-0.58,-1.18,-0.73,1.50
13.186,-0.36,-1.57,-0.49,1.68
13.195,-0.15,-1.90,-0.42,1.95
13.206,0.04,-2.10,-0.46,2.15
13.216,0.30,-2.25,-0.54,2.33
13.226,0.60,-2.42,-0.69,2.59
13.236,0.84,-2.76,-0.88,3.02
13.246,0.81,-3.02,-1.04,3.30
13.256,0.73,-3.16,-1.16,3.45
13.266,0.68,-3.12,-1.07,3.37
13.276,0.63,-2.88,-0.80,3.05
13.286,0.67,-2.57,-0.60,2.72
13.296,0.59,-2.25,-0.48,2.38
13.306,0.52,-1.87,-0.42,1.99
13.316,0.55,-1.39,-0.49,1.58
13.326,0.60,-1.00,-0.51,1.27
13.336,0.66,-0.73,-0.55,1.13
13.346,0.76,-0.51,-0.50,1.04
13.356,0.65,-0.34,-0.48,0.88
13.367,0.54,-0.28,-0.33,0.69
13.377,0.50,-0.36,-0.23,0.66
13.387,0.47,-0.47,-0.11,0.68
13.397,0.46,-0.46,-0.08,0.65
13.407,0.55,-0.26,-0.15,0.63
13.417,0.56,-0.06,-0.12,0.58
13.427,0.50,-0.00,0.03,0.50
13.437,0.42,-0.05,0.21,0.47
13.447,0.43,-0.14,0.41,0.61
13.457,0.47,-0.27,0.66,0.86
13.467,0.43,-0.38,0.74,0.93
13.477,0.33,-0.49,0.66,0.89
13.487,0.25,-0.59,0.57,0.86
13.497,0.28,-0.58,0.54,0.84
13.507,0.45,-0.54,0.57,0.90
13.517,0.72,-0.48,0.51,1.00
13.527,0.82,-0.46,0.42,1.03
13.538,0.76,-0.51,0.25,0.95
13.548,0.56,-0.55,0.10,0.79
13.558,0.44,-0.29,0.03,0.53
13.568,0.41,0.22,0.20,0.50
13.578,0.24,0.49,0.55,0.78
13.588,0.17,0.28,0.85,0.91
13.598,0.25,-0.14,1.09,1.13
13.608,0.45,-0.39,1.38,1.51
13.618,0.85,-0.28,1.54,1.78
13.628,1.26,-0.00,1.48,1.94
13.638,1.55,0.39,1.35,2.10
13.648,1.62,0.78,1.30,2.22
13.658,1.42,1.17,1.45,2.34
13.668,1.35,1.61,1.39,2.52
13.678,1.48,1.90,1.23,2.71
13.688,1.67,2.16,1.06,2.93
13.698,1.78,2.72,0.72,3.33
13.708,1.54,3.56,0.13,3.88
13.719,0.95,4.38,-0.26,4.49
13.729,0.63,4.83,-0.33,4.88
13.739,0.56,5.13,-0.20,5.16
13.749,0.34,5.37,-0.20,5.39
13.759,0.10,5.14,-0.49,5.17
13.769,-0.02,4.44,-1.17,4.59
13.779,-0.38,3.49,-1.78,3.93
13.789,-0.89,2.45,-2.08,3.33
13.799,-1.37,1.40,-2.22,2.96
13.809,-1.54,0.46,-2.24,2.76
13.819,-1.47,-0.35,-2.10,2.59
13.829,-1.33,-0.98,-1.77,2.42
13.839,-1.17,-1.23,-1.47,2.25
13.849,-0.96,-0.95,-1.55,2.05
13.859,-0.77,-0.29,-1.50,1.71
13.869,-0.84,0.39,-0.98,1.35
13.879,-1.09,0.70,-0.43,1.36
13.890,-1.32,0.78,0.06,1.54
13.900,-1.31,0.78,0.22,1.54
13.909,-1.13,0.65,0.24,1.33
13.920,-0.74,0.62,0.23,1.00
13.930,-0.15,0.61,-0.10,0.64
13.940,0.34,0.42,-0.42,0.68
13.950,0.13,-0.20,-0.48,0.54
13.960,-0.22,-0.84,-0.43,0.97
13.970,-0.41,-1.35,-0.40,1.46
13.980,-0.42,-1.60,-0.35,1.69
13.990,-0.44,-1.80,-0.35,1.89
14.000,-0.47,-1.99,-0.34,2.07
14.010,-0.49,-2.08,-0.37,2.17
14.021,-0.63,-2.05,-0.40,2.18
14.030,-0.72,-2.03,-0.37,2.19
14.040,-0.63,-2.02,-0.32,2.14
14.050,-0.53,-2.06,-0.24,2.14
14.060,-0.51,-2.12,-0.26,2.20
14.071,-0.41,-2.20,-0.32,2.26
14.080,-0.35,-2.17,-0.25,2.21
14.091,-0.24,-2.02,-0.20,2.04
14.101,-0.10,-1.81,-0.20,1.83
14.111,-0.06,-1.77,-0.27,1.79
14.121,-0.04,-1.70,-0.18,1.71
14.131,-0.11,-1.63,0.02,1.64
14.141,-0.16,-1.56,0.12,1.57
14.151,-0.17,-1.53,0.15,1.55
14.161,-0.24,-1.66,0.23,1.69
14.171,-0.43,-1.79,0.38,1.88
14.181,-0.59,-1.79,0.41,1.93
14.191,-0.64,-1.66,0.37,1.82
14.201,-0.49,-1.58,0.36,1.69
14.211,-0.33,-1.46,0.33,1.53
14.221,-0.16,-1.29,0.30,1.33
14.232,0.01,-1.09,0.38,1.15
14.242,0.26,-0.86,0.50,1.02
14.252,0.49,-0.63,0.49,0.93
14.262,0.60,-0.44,0.45,0.87
14.272,0.55,-0.40,0.55,0.88
14.282,0.39,-0.44,0.74,0.95
14.292,0.23,-0.44,0.89,1.02
14.302,0.23,-0.30,1.01,1.08
14.312,0.36,-0.15,1.21,1.27
14.322,0.56,-0.02,1.45,1.56
14.332,0.85,0.09,1.50,1.73
14.342,1.14,0.19,1.42,1.83
14.354,1.30,0.34,1.33,1.89
14.362,1.31,0.39,1.42,1.97
14.372,1.35,0.27,1.69,2.18
14.382,1.43,0.38,1.62,2.19
14.392,1.47,1.12,1.30,2.27
14.402,1.22,2.43,1.09,2.93
14.412,0.61,3.77,0.84,3.91
14.423,-0.36,4.41,0.67,4.48
14.433,-1.38,4.11,0.95,4.44
14.443,-1.93,3.69,1.46,4.42
14.453,-1.97,3.78,1.64,4.57
14.463,-1.61,4.18,1.45,4.71
14.473,-1.14,4.55,1.43,4.91
14.483,-1.01,4.75,1.00,4.95
14.493,-1.14,4.00,0.48,4.19
14.503,-0.92,2.97,0.01,3.11
14.513,-0.84,1.96,-0.28,2.15
14.523,-0.85,0.93,-0.63,1.41
14.533,-0.82,-0.14,-0.84,1.19
14.543,-0.77,-1.06,-0.95,1.62
14.553,-0.73,-1.80,-1.11,2.24
14.563,-0.73,-2.24,-1.10,2.60
14.574,-0.63,-2.21,-1.08,2.54
14.583,-0.50,-1.78,-1.03,2.12
14.593,-0.43,-1.19,-0.97,1.59
14.604,-0.44,-0.60,-0.97,1.22
14.614,-0.39,-0.16,-1.04,1.12
14.624,-0.23,-0.01,-1.15,1.17
14.634,0.05,-0.05,-1.26,1.26
14.644,0.26,-0.25,-1.29,1.34
14.654,0.21,-0.54,-1.03,1.18
14.664,0.05,-0.82,-0.65,1.04
14.674,-0.07,-1.12,-0.35,1.18
14.684,-0.11,-1.43,-0.26,1.45
14.694,-0.09,-1.72,-0.17,1.73
14.704,0.08,-1.98,-0.17,1.99
14.714,0.29,-2.11,-0.18,2.14
14.724,0.44,-2.18,-0.29,2.24
14.734,0.61,-2.26,-0.34,2.37
14.744,0.86,-2.40,-0.35,2.57
14.755,0.99,-2.45,-0.30,2.66
14.764,1.05,-2.37,-0.26,2.61
14.775,1.05,-2.14,-0.18,2.39
14.785,0.97,-1.80,-0.23,2.06
14.795,0.82,-1.49,-0.35,1.74
14.805,0.62,-1.10,-0.42,1.33
14.815,0.44,-0.83,-0.48,1.05
14.825,0.21,-0.73,-0.50,0.91
14.835,-0.01,-0.68,-0.69,0.97
14.845,-0.14,-0.77,-0.78,1.11
14.855,-0.06,-0.85,-0.73,1.12
14.865,0.11,-0.84,-0.45,0.97
14.875,0.31,-0.89,-0.26,0.97
14.885,0.44,-0.89,-0.11,1.00
14.895,0.55,-0.86,-0.09,1.03
14.905,0.58,-0.78,-0.09,0.97
14.915,0.57,-0.56,0.12,0.81
14.925,0.60,-0.39,0.39,0.82
14.935,0.64,-0.31,0.58,0.91
14.945,0.68,-0.34,0.61,0.98
14.956,0.68,-0.35,0.57,0.95
14.966,0.65,-0.20,0.52,0.86
14.976,0.61,-0.04,0.59,0.85
14.986,0.48,-0.06,0.72,0.86
14.996,0.34,-0.12,0.77,0.85
15.006,0.29,-0.07,0.80,0.85
15.016,0.36,0.12,0.83,0.92
15.026,0.54,0.42,0.91,1.14
15.036,0.67,0.64,0.97,1.34
15.046,0.80,0.69,0.95,1.42
15.056,1.00,0.71,0.91,1.53
15.066,1.17,0.90,1.01,1.79
15.076,1.25,1.24,1.02,2.04
15.086,1.14,1.64,1.06,2.26
15.096,1.02,1.94,1.21,2.50
15.106,1.18,2.01,1.31,2.67
15.116,1.54,2.08,1.55,3.01
15.126,1.95,2.58,1.54,3.58
15.136,1.91,3.43,0.94,4.03
15.147,1.39,4.12,0.23,4.35
15.157,0.98,4.31,-0.38,4.44
15.167,0.90,4.04,-0.88,4.24
15.177,0.75,3.53,-1.22,3.81
15.187,0.48,2.99,-1.63,3.44
15.197,0.03,2.53,-2.15,3.32
15.207,-0.72,2.05,-2.63,3.41
15.217,-1.52,1.44,-2.92,3.59
15.227,-2.17,0.69,-2.98,3.75
15.237,-2.47,0.08,-2.86,3.78
15.247,-2.39,-0.21,-2.61,3.54
15.257,-2.05,-0.24,-2.09,2.94
15.267,-1.60,0.02,-1.54,2.22
15.277,-1.14,0.52,-1.42,1.89
15.287,-0.87,0.80,-1.12,1.63
15.297,-0.82,0.77,-0.11,1.13
15.307,-0.85,0.59,0.32,1.08
15.318,-0.87,0.58,0.36,1.10
15.328,-0.74,0.62,0.33,1.02
15.338,-0.68,0.64,0.20,0.95
15.348,-0.55,0.47,-0.01,0.72
15.358,-0.19,0.15,-0.08,0.26
15.368,-0.15,-0.49,-0.20,0.55
15.378,-0.10,-1.08,-0.28,1.12
15.388,0.08,-1.60,-0.45,1.67
15.398,0.23,-2.01,-0.72,2.14
15.408,0.17,-2.26,-0.98,2.47
15.418,0.02,-2.45,-1.12,2.69
15.428,-0.17,-2.49,-1.01,2.69
15.438,-0.45,-2.44,-0.87,2.63
15.448,-0.76,-2.41,-0.66,2.61
15.458,-0.97,-2.33,-0.37,2.55
15.468,-1.09,-2.07,-0.04,2.34
15.479,-1.05,-1.84,0.13,2.12
15.489,-0.99,-1.77,0.13,2.04
15.499,-0.79,-1.74,0.05,1.91
15.509,-0.55,-1.67,0.00,1.76
15.519,-0.18,-1.67,-0.00,1.68
15.529,0.10,-1.68,0.02,1.68
15.539,0.19,-1.63,0.07,1.65
15.549,0.28,-1.57,0.09,1.59
15.559,0.31,-1.55,0.11,1.58
15.569,0.25,-1.57,-0.03,1.59
15.579,0.04,-1.57,-0.10,1.57
15.589,-0.25,-1.61,0.07,1.63
15.599,-0.44,-1.65,0.48,1.77
15.609,-0.45,-1.70,0.76,1.92
15.619,-0.30,-1.62,0.86,1.86
15.629,-0.03,-1.47,0.85,1.70
15.640,0.24,-1.25,0.72,1.46
15.650,0.55,-1.00,0.61,1.29
15.660,0.75,-0.75,0.57,1.20
15.670,0.80,-0.48,0.60,1.11
15.680,0.76,-0.22,0.67,1.04
15.690,0.73,0.03,0.74,1.04
15.700,0.67,0.20,0.86,1.11
15.710,0.65,0.26,0.99,1.22
15.720,0.67,0.26,1.15,1.36
15.730,0.77,0.29,1.25,1.49
15.740,0.89,0.34,1.46,1.74
15.750,0.95,0.39,1.75,2.03
15.760,1.09,0.43,1.78,2.13
15.770,1.21,0.47,1.70,2.14
15.780,1.26,0.54,1.67,2.16
15.790,1.15,0.71,1.52,2.03
15.800,0.84,0.71,1.43,1.81
15.810,0.47,0.57,1.58,1.74
15.821,0.20,1.16,1.08,1.60
15.831,0.01,2.61,0.70,2.70
15.841,-0.60,4.00,0.49,4.08
15.851,-1.58,4.51,0.48,4.80
15.861,-2.09,4.64,1.05,5.20
15.871,-2.30,4.82,1.26,5.49
15.881,-2.36,4.69,0.86,5.32
15.891,-1.84,4.18,0.92,4.65
15.901,-1.12,3.45,0.87,3.73
15.911,-0.84,2.49,0.20,2.63
15.921,-0.73,1.58,-0.47,1.81
15.931,-0.55,0.77,-0.73,1.19
15.941,-0.37,0.23,-0.74,0.86
15.951,-0.37,-0.11,-0.85,0.93
15.961,-0.37,-0.34,-1.00,1.12
15.971,-0.25,-0.45,-1.11,1.23
15.981,-0.09,-0.40,-1.19,1.26
15.991,-0.04,-0.29,-1.31,1.35
16.002,-0.20,-0.18,-1.43,1.45
16.011,-0.41,-0.19,-1.38,1.46
16.022,-0.57,-0.26,-1.32,1.46
16.032,-0.63,-0.33,-1.27,1.46
16.042,-0.49,-0.46,-1.14,1.32
16.052,-0.33,-0.63,-0.96,1.20
16.062,-0.19,-0.89,-0.81,1.22
16.072,-0.21,-1.14,-0.65,1.33
16.082,-0.27,-1.39,-0.64,1.56
16.092,-0.28,-1.66,-0.62,1.79
16.102,-0.26,-1.80,-0.53,1.89
16.112,-0.13,-1.93,-0.41,1.98
16.122,-0.03,-2.10,-0.32,2.12
16.132,0.13,-2.35,-0.36,2.38
16.142,0.19,-2.70,-0.46,2.74
16.152,0.35,-2.95,-0.53,3.02
16.163,0.58,-3.15,-0.56,3.25
16.173,0.71,-3.23,-0.43,3.33
16.183,0.70,-2.92,-0.31,3.02
16.193,0.87,-2.72,-0.42,2.89
16.203,0.85,-2.41,-0.50,2.60
16.213,0.83,-2.15,-0.58,2.38
16.223,0.87,-1.92,-0.67,2.21
16.233,0.77,-1.47,-0.63,1.78
16.243,0.67,-1.16,-0.61,1.47
16.253,0.45,-0.84,-0.53,1.09
16.263,0.26,-0.54,-0.25,0.65
16.273,0.26,-0.46,-0.01,0.53
16.283,0.38,-0.53,0.26,0.70
16.293,0.59,-0.52,0.31,0.84
16.303,0.94,-0.52,0.33,1.13
16.313,1.28,-0.47,0.35,1.41
16.323,1.54,-0.35,0.34,1.62
16.333,1.58,-0.22,0.36,1.64
16.343,1.47,-0.16,0.47,1.56
16.354,1.24,-0.16,0.56,1.37
16.364,0.92,-0.12,0.61,1.11
16.374,0.63,-0.22,0.69,0.96
16.384,0.50,-0.23,0.78,0.95
16.394,0.47,-0.07,0.90,1.02
16.404,0.42,0.03,0.90,0.99
16.414,0.43,0.03,0.87,0.97
16.424,0.47,-0.03,0.88,0.99
16.434,0.41,-0.12,0.81,0.91
16.444,0.30,-0.14,0.63,0.71
16.454,0.29,0.04,0.53,0.60
16.464,0.40,0.37,0.50,0.74
16.474,0.49,0.72,0.50,1.01
16.484,0.61,0.96,0.72,1.35
16.494,0.79,1.08,1.07,1.71
16.505,1.00,1.11,1.22,1.93
16.514,1.03,1.23,1.23,2.02
16.525,1.00,1.56,1.08,2.14
16.535,1.14,1.97,0.71,2.38
16.545,1.33,2.37,0.69,2.80
16.555,1.55,2.94,0.82,3.42
16.565,1.51,3.76,0.39,4.07
16.575,1.03,4.43,-0.16,4.55
16.585,0.38,4.74,-0.40,4.77
16.595,0.04,4.80,-0.55,4.83
16.605,0.11,4.57,-0.83,4.65
16.615,-0.04,3.89,-1.25,4.09
16.625,-0.50,2.97,-1.59,3.40
16.635,-0.86,2.00,-1.92,2.91
16.645,-1.06,1.09,-2.22,2.70
16.655,-1.19,0.35,-2.32,2.63
16.665,-1.34,-0.14,-2.16,2.55
16.675,-1.38,-0.30,-1.89,2.36
16.685,-1.24,-0.25,-1.57,2.02
16.695,-0.99,0.01,-1.33,1.65
16.706,-0.68,0.42,-1.24,1.47
16.716,-0.48,0.62,-0.80,1.12
16.726,-0.53,0.32,-0.19,0.65
16.736,-0.51,-0.14,0.17,0.55
16.746,-0.30,-0.59,0.39,0.77
16.756,-0.29,-0.82,0.31,0.92
16.766,-0.14,-0.64,0.19,0.69
16.776,-0.14,-0.24,-0.01,0.28
16.786,0.02,0.04,-0.33,0.33
16.796,0.22,-0.13,-0.51,0.57
16.806,-0.08,-0.58,-0.45,0.74
16.816,-0.41,-1.05,-0.42,1.20
16.826,-0.63,-1.55,-0.44,1.74
16.836,-0.70,-1.79,-0.36,1.95
16.846,-0.66,-1.79,-0.22,1.92
16.856,-0.60,-1.70,-0.22,1.81
16.867,-0.59,-1.58,-0.32,1.72
16.877,-0.71,-1.51,-0.34,1.71
16.887,-0.76,-1.44,-0.35,1.67
16.897,-0.63,-1.36,-0.33,1.54
16.907,-0.40,-1.30,-0.29,1.39
16.917,-0.10,-1.28,-0.25,1.30
16.927,0.11,-1.40,-0.21,1.42
16.937,0.04,-1.40,-0.06,1.40
16.947,0.06,-1.49,0.14,1.50
16.957,0.13,-1.62,0.19,1.63
16.967,0.16,-1.71,0.01,1.71
16.977,0.29,-1.74,-0.19,1.77
16.987,0.34,-1.86,-0.37,1.93
16.997,0.11,-1.95,-0.37,1.99
17.007,-0.10,-1.92,-0.33,1.95
17.017,-0.36,-1.87,-0.29,1.92
17.027,-0.65,-1.72,-0.19,1.85
17.038,-0.80,-1.47,-0.01,1.68
17.047,-0.86,-1.22,0.22,1.51
17.058,-0.84,-0.99,0.32,1.34
17.068,-0.73,-0.86,0.39,1.19
17.078,-0.57,-0.84,0.37,1.08
17.088,-0.43,-0.86,0.28,1.00
17.098,-0.34,-0.87,0.37,1.00
17.108,-0.24,-0.77,0.49,0.95
17.118,-0.05,-0.66,0.71,0.97
17.128,0.14,-0.54,0.82,0.99
17.138,0.36,-0.41,0.96,1.10
17.148,0.56,-0.28,1.08,1.25
17.158,0.75,-0.14,1.10,1.34
17.168,0.94,0.05,1.08,1.43
17.178,1.10,0.29,1.01,1.52
17.188,1.13,0.58,0.97,1.60
17.198,1.14,0.79,1.05,1.74
17.208,1.20,0.90,1.27,1.97
17.218,1.18,0.97,1.31,2.01
17.231,1.08,0.90,1.43,2.01
17.238,1.05,0.48,2.31,2.58
17.249,1.49,0.42,2.61,3.04
17.259,1.78,1.37,1.96,2.98
17.269,1.28,2.73,1.30,3.29
17.279,0.49,3.52,0.77,3.64
17.289,-0.41,3.60,0.87,3.73
17.299,-1.37,3.41,1.32,3.90
17.309,-1.97,3.32,1.57,4.17
17.319,-1.76,3.52,1.48,4.21
17.329,-1.05,3.78,1.56,4.22
17.339,-0.51,3.83,1.00,3.99
17.349,-0.53,3.42,0.15,3.46
17.359,-0.86,2.86,-0.64,3.05
17.369,-1.27,2.19,-0.97,2.71
17.379,-1.43,1.36,-0.99,2.21
17.390,-1.26,0.42,-1.08,1.72
17.399,-1.02,-0.40,-1.47,1.84
17.410,-0.85,-0.95,-1.70,2.12
17.420,-0.85,-1.37,-1.63,2.29
17.430,-0.88,-1.60,-1.33,2.26
17.440,-0.84,-1.48,-1.00,1.98
17.450,-0.62,-1.08,-0.53,1.36
17.460,-0.39,-0.52,-0.33,0.73
17.470,-0.24,0.06,-0.39,0.46
17.480,0.02,0.35,-0.59,0.69
17.490,0.34,0.31,-0.85,0.96
17.500,0.52,0.02,-1.11,1.23
17.510,0.55,-0.45,-1.22,1.41
17.520,0.32,-0.91,-1.05,1.42
17.530,0.09,-1.26,-0.73,1.46
17.540,-0.14,-1.58,-0.45,1.65
17.550,-0.35,-1.92,-0.31,1.97
17.560,-0.45,-2.19,-0.24,2.25
17.571,-0.42,-2.36,-0.28,2.41
17.581,-0.26,-2.58,-0.42,2.62
17.591,-0.03,-2.80,-0.51,2.85
17.601,0.23,-3.04,-0.59,3.11
17.611,0.58,-2.95,-0.53,3.06
17.621,0.83,-2.57,-0.45,2.74
17.631,1.03,-2.32,-0.55,2.60
17.641,1.04,-2.03,-0.57,2.35
17.651,0.80,-1.74,-0.65,2.02
17.661,0.58,-1.49,-0.82,1.80
17.671,0.41,-1.19,-0.79,1.48
17.681,0.29,-1.00,-0.45,1.13
17.691,0.15,-0.88,-0.29,0.94
17.701,0.16,-0.82,-0.29,0.88
17.711,0.29,-0.78,-0.26,0.87
17.721,0.38,-0.80,-0.27,0.93
17.731,0.46,-0.89,-0.35,1.07
17.741,0.55,-0.98,-0.47,1.22
17.752,0.61,-1.02,-0.41,1.26
17.762,0.58,-0.91,-0.25,1.11
17.772,0.55,-0.73,0.05,0.92
17.782,0.45,-0.59,0.30,0.80
17.792,0.34,-0.52,0.53,0.82
17.802,0.27,-0.47,0.65,0.85
17.812,0.22,-0.44,0.69,0.85
17.822,0.26,-0.36,0.65,0.79
17.832,0.30,-0.26,0.59,0.72
17.842,0.41,-0.14,0.50,0.66
17.852,0.40,-0.06,0.54,0.67
17.862,0.36,-0.09,0.59,0.70
17.872,0.44,-0.20,0.55,0.73
17.882,0.48,-0.28,0.54,0.77
17.892,0.52,-0.26,0.60,0.84
17.902,0.72,-0.17,0.72,1.03
17.912,0.91,-0.07,0.76,1.19
17.923,0.96,0.04,0.69,1.18
17.933,0.98,0.13,0.55,1.13
17.943,1.11,0.29,0.43,1.22
17.953,1.17,0.58,0.28,1.33
17.963,1.08,0.90,0.08,1.41
17.973,0.92,1.10,-0.04,1.44
17.983,0.66,1.20,0.11,1.37
17.993,0.37,1.25,0.68,1.47
18.003,0.21,1.22,1.12,1.67
18.013,0.28,1.20,1.39,1.86
18.023,0.47,1.11,1.74,2.12
18.033,0.80,1.00,1.94,2.32
18.043,1.29,1.05,1.95,2.56
18.053,1.76,1.41,2.14,3.11
18.063,2.25,1.97,2.31,3.78
18.073,2.87,2.46,2.04,4.29
18.083,3.37,2.80,1.58,4.65
18.094,3.33,3.12,1.05,4.68
18.103,2.61,3.51,0.54,4.41
18.114,1.44,3.86,0.23,4.13
18.124,0.12,3.99,-0.12,4.00
18.134,-0.98,4.04,-0.56,4.20
18.144,-1.72,4.20,-1.13,4.68
18.154,-2.08,4.07,-2.00,4.99
18.164,-2.25,3.26,-2.73,4.81
18.174,-2.34,2.11,-2.87,4.26
18.184,-2.44,1.18,-2.57,3.73
18.194,-2.35,0.69,-2.24,3.32
18.204,-2.06,0.36,-2.04,2.93
18.214,-1.68,0.32,-1.72,2.42
18.224,-1.39,0.37,-1.43,2.03
18.234,-1.13,0.46,-1.13,1.66
18.244,-0.80,0.66,-0.71,1.26
18.254,-0.40,0.66,-0.20,0.80
18.264,-0.12,0.35,-0.07,0.37
18.275,0.09,-0.25,-0.13,0.30
18.285,0.33,-1.14,-0.12,1.19
18.295,0.46,-2.01,-0.03,2.06
18.305,0.26,-2.22,-0.06,2.24
18.315,0.22,-1.78,-0.24,1.81
18.325,0.41,-1.37,-0.28,1.46
18.335,0.45,-1.33,-0.37,1.45
18.345,0.25,-1.35,-0.46,1.44
18.355,0.15,-1.64,-0.69,1.79
18.365,-0.07,-1.88,-0.94,2.10
18.375,-0.45,-2.10,-1.03,2.38
18.385,-0.62,-2.09,-0.71,2.29
18.395,-0.82,-1.97,-0.46,2.18
18.405,-1.05,-1.90,-0.34,2.20
18.415,-1.30,-1.97,-0.34,2.38
18.425,-1.45,-2.14,-0.23,2.59
18.435,-1.45,-2.23,-0.10,2.66
18.446,-1.10,-2.33,-0.15,2.58
18.456,-0.65,-2.40,-0.32,2.51
18.466,-0.06,-2.36,-0.41,2.40
18.476,0.29,-2.33,-0.64,2.44
18.486,0.34,-2.32,-0.78,2.47
18.496,0.33,-2.22,-0.72,2.36
18.506,0.30,-2.12,-0.64,2.23
18.516,0.17,-2.05,-0.49,2.11
18.526,-0.15,-1.89,-0.14,1.91
18.536,-0.46,-1.72,0.19,1.79
18.546,-0.58,-1.59,0.29,1.72
18.556,-0.62,-1.45,0.27,1.60
18.566,-0.64,-1.35,0.39,1.55
18.576,-0.46,-1.26,0.61,1.47
18.586,-0.20,-1.08,0.76,1.34
18.596,-0.01,-0.84,0.81,1.16
18.606,0.10,-0.59,0.74,0.95
18.616,0.25,-0.45,0.45,0.68
18.627,0.37,-0.46,0.35,0.69
18.637,0.41,-0.63,0.55,0.93
18.646,0.50,-0.79,0.60,1.11
18.657,0.68,-0.98,0.69,1.38
18.667,0.71,-1.03,0.82,1.50
18.677,0.76,-1.03,0.89,1.55
18.687,0.84,-1.12,0.97,1.70
18.697,0.95,-1.28,0.98,1.87
18.707,1.12,-1.43,1.00,2.07
18.717,1.15,-1.54,1.06,2.20
18.727,0.79,-1.52,0.94,1.96
18.737,0.12,-1.42,1.04,1.76
18.747,-0.40,-1.15,1.15,1.68
18.757,-0.65,-0.61,1.21,1.50
18.767,-0.87,0.01,1.25,1.52
18.777,-0.92,0.44,1.09,1.49
18.790,-0.57,0.79,1.18,1.53
18.798,0.20,1.02,1.56,1.87
18.808,1.06,1.15,1.82,2.40
18.818,1.63,0.93,1.81,2.61
18.828,2.14,0.62,1.71,2.81
18.838,2.70,0.38,1.48,3.10
18.848,3.00,0.13,1.53,3.37
18.858,3.19,0.08,1.89,3.71
18.868,3.16,0.44,2.08,3.81
18.878,2.75,1.46,2.03,3.72
18.888,1.84,2.74,1.82,3.78
18.898,0.90,3.90,1.69,4.34
18.908,-0.26,4.62,1.38,4.83
18.918,-1.58,4.71,1.24,5.12
18.928,-2.41,4.25,1.07,5.01
18.938,-2.30,3.21,0.94,4.06
18.948,-1.43,1.91,1.14,2.64
18.958,-0.56,0.91,1.49,1.84
18.968,-0.13,0.20,1.51,1.53
18.979,0.39,-0.21,1.21,1.29
18.989,0.94,-0.25,0.63,1.16
18.999,1.03,-0.20,-0.09,1.05
19.009,0.62,-0.27,-0.96,1.17
19.019,-0.06,-0.60,-1.72,1.82
19.029,-0.75,-1.18,-2.02,2.45
19.039,-1.31,-1.74,-2.08,3.01
19.049,-1.70,-2.16,-2.12,3.47
19.059,-1.80,-2.34,-2.12,3.64
19.069,-1.72,-2.18,-2.00,3.42
19.079,-1.58,-1.62,-1.80,2.89
19.089,-1.40,-1.11,-1.63,2.42
19.099,-1.29,-0.60,-1.47,2.04
19.109,-1.18,-0.16,-1.35,1.81
19.120,-0.92,0.14,-1.21,1.52
19.129,-0.54,0.30,-1.12,1.28
19.140,-0.32,0.17,-1.02,1.09
19.149,-0.28,-0.16,-0.97,1.02
19.160,-0.32,-0.41,-0.84,0.99
19.170,-0.29,-0.54,-0.67,0.91
19.180,-0.22,-0.67,-0.70,0.99
19.190,-0.18,-0.80,-0.82,1.16
19.200,-0.24,-0.91,-0.93,1.33
19.210,-0.28,-0.90,-0.99,1.37
19.220,-0.31,-0.81,-0.98,1.31
19.230,-0.31,-0.63,-0.90,1.14
19.240,-0.23,-0.41,-0.73,0.87
19.250,-0.17,-0.39,-0.58,0.72
19.260,-0.10,-0.42,-0.48,0.65
19.270,-0.03,-0.28,-0.31,0.42
19.280,0.19,-0.05,-0.09,0.22
19.290,0.42,0.11,0.08,0.44
19.300,0.60,0.04,0.17,0.62
19.310,0.86,-0.18,0.23,0.91
19.320,1.19,-0.32,0.30,1.26
19.331,1.49,-0.39,0.36,1.59
19.341,1.69,-0.33,0.37,1.76
19.351,1.73,-0.18,0.40,1.78
19.361,1.60,-0.26,0.50,1.70
19.371,1.36,-0.45,0.65,1.57
19.381,1.12,-0.69,0.79,1.53
19.391,0.99,-0.94,0.99,1.69
19.401,0.97,-1.05,1.14,1.83
19.411,1.03,-0.96,1.10,1.79
19.421,1.04,-0.78,0.98,1.62
19.431,0.96,-0.73,0.87,1.48
19.441,0.90,-0.80,0.84,1.47
19.451,0.98,-0.88,0.86,1.57
19.461,1.09,-0.84,0.88,1.64
19.471,1.18,-0.66,0.75,1.55
19.481,1.13,-0.42,0.56,1.33
19.491,0.95,-0.33,0.48,1.11
19.502,0.68,-0.30,0.60,0.96
19.511,0.44,-0.22,0.92,1.04
19.522,0.32,-0.12,1.20,1.25
19.532,0.33,-0.11,1.30,1.34
19.542,0.41,-0.16,1.27,1.35
19.552,0.61,-0.18,1.25,1.40
19.562,0.93,-0.06,1.27,1.58
19.572,1.17,0.11,1.37,1.80
19.582,1.21,0.32,1.49,1.95
19.592,1.12,0.55,1.56,1.99
19.602,0.89,0.78,1.51,1.92
19.612,0.66,1.08,1.26,1.78
19.622,0.55,1.51,1.06,1.93
19.632,0.51,1.95,1.00,2.25
19.642,0.41,2.15,0.90,2.36
19.652,0.04,2.33,0.56,2.39
19.662,-0.14,2.83,-0.02,2.84
19.672,-0.01,3.60,-0.95,3.72
19.682,-0.16,4.00,-1.95,4.45
19.693,-0.62,3.66,-2.77,4.64
19.703,-1.07,2.86,-3.46,4.61
19.713,-1.51,1.79,-3.76,4.43
19.723,-1.98,0.36,-3.49,4.03
19.733,-2.22,-1.03,-3.10,3.94
19.743,-2.21,-2.04,-2.76,4.08
19.753,-1.97,-2.81,-2.36,4.16
19.763,-1.67,-2.89,-1.77,3.78
19.773,-1.22,-1.91,-1.39,2.66
19.783,-0.66,-0.54,-1.34,1.59
19.793,-0.27,0.71,-1.24,1.46
19.803,-0.09,1.64,-1.04,1.95
19.813,-0.15,2.30,-0.97,2.50
19.823,-0.37,2.38,-0.96,2.60
19.833,-0.63,2.19,-0.99,2.49
19.843,-0.76,2.04,-1.03,2.40
19.853,-0.64,2.00,-0.76,2.23
19.863,-0.64,1.76,-0.52,1.94
19.874,-0.97,0.99,-0.48,1.47
19.884,-0.80,0.09,-0.60,1.00
19.894,-0.41,-0.55,-0.72,0.99
19.904,-0.15,-1.10,-0.82,1.38
19.914,0.06,-1.44,-0.91,1.71
19.924,0.21,-1.60,-0.92,1.86
19.934,0.28,-1.59,-0.66,1.74
19.944,0.05,-1.61,-0.38,1.65
19.954,-0.25,-1.54,-0.13,1.56
19.964,-0.54,-1.43,-0.07,1.53
19.974,-0.86,-1.26,-0.05,1.53
19.984,-1.06,-1.08,0.12,1.52
19.994,-1.15,-0.97,0.22,1.52
20.004,-1.18,-0.81,0.28,1.46
20.015,-1.07,-0.52,0.34,1.24
20.025,-0.88,-0.38,0.33,1.01
20.035,-0.65,-0.38,0.18,0.78
20.045,-0.37,-0.40,-0.01,0.54
20.055,-0.12,-0.46,0.06,0.47
20.065,0.08,-0.43,0.13,0.46
20.075,0.31,-0.43,0.09,0.54
20.085,0.51,-0.53,0.02,0.73
20.095,0.56,-0.71,-0.15,0.92
20.105,0.50,-0.89,-0.24,1.04
20.115,0.37,-1.02,-0.05,1.09
20.125,0.26,-1.14,0.20,1.19
20.135,0.13,-1.23,0.44,1.31
20.145,0.07,-1.12,0.64,1.29
20.155,0.01,-0.85,0.94,1.27
20.165,0.03,-0.62,1.29,1.43
20.175,0.24,-0.47,1.46,1.55
20.185,0.54,-0.47,1.44,1.61
20.196,0.90,-0.59,1.30,1.69
20.206,1.31,-0.62,1.18,1.86
20.215,1.63,-0.61,1.12,2.07
20.226,1.83,-0.60,1.28,2.31
20.236,1.93,-0.49,1.52,2.51
20.246,1.94,-0.24,1.65,2.56
20.256,1.86,0.09,1.77,2.57
20.266,1.74,0.52,1.78,2.54
20.276,1.65,0.92,1.63,2.49
20.286,1.40,1.12,1.44,2.30
20.296,0.94,0.98,1.63,2.12
20.306,0.40,0.99,1.63,1.94
20.316,-0.08,1.70,1.48,2.26
20.326,-0.46,3.15,1.30,3.44
20.336,-0.77,4.58,1.18,4.79
20.346,-1.02,5.24,1.01,5.43
20.356,-1.33,5.25,0.91,5.49
20.366,-1.50,4.78,1.32,5.18
20.377,-0.94,4.69,1.80,5.11
20.387,0.08,5.26,1.68,5.53
20.397,0.66,5.23,1.34,5.44
20.407,0.55,4.09,0.71,4.19
20.417,0.06,2.56,-0.11,2.57
20.427,-0.27,1.47,-1.10,1.86
20.437,-0.59,0.75,-1.59,1.86
20.447,-0.82,0.14,-1.67,1.87
20.457,-1.12,-0.33,-1.68,2.05
20.467,-1.47,-0.55,-1.68,2.29
20.477,-1.82,-0.49,-1.67,2.52
20.487,-2.05,-0.28,-1.54,2.58
20.497,-1.89,-0.02,-1.45,2.38
20.507,-1.58,0.17,-1.40,2.12
20.517,-1.25,0.20,-1.53,1.98
20.527,-0.90,0.03,-1.80,2.02
20.537,-0.73,-0.20,-2.05,2.19
20.547,-0.73,-0.49,-2.06,2.24
20.558,-0.87,-0.80,-1.92,2.25
20.568,-1.09,-1.07,-1.59,2.21
20.578,-1.31,-1.36,-1.15,2.21
20.588,-1.34,-1.65,-0.78,2.27
20.598,-1.25,-1.92,-0.54,2.36
20.608,-1.03,-2.10,-0.57,2.41
20.618,-0.69,-2.27,-0.79,2.50
20.628,-0.38,-2.43,-0.95,2.64
20.638,-0.11,-2.54,-1.07,2.76
20.648,0.00,-2.59,-1.12,2.83
20.658,0.10,-2.61,-1.10,2.84
20.668,0.20,-2.51,-0.98,2.70
20.678,0.50,-2.51,-0.87,2.70
20.688,0.55,-2.44,-0.85,2.64
20.699,0.47,-2.38,-0.85,2.57
20.708,0.33,-2.26,-0.98,2.49
20.718,0.35,-2.09,-0.81,2.27
20.729,0.40,-1.85,-0.62,1.99
20.738,0.44,-1.45,-0.59,1.63
20.749,0.55,-1.25,-0.52,1.46
20.759,0.67,-1.20,-0.47,1.45
20.769,0.84,-0.93,-0.41,1.32
20.779,1.01,-0.61,-0.26,1.20
20.789,1.10,-0.40,-0.15,1.18
20.799,1.04,-0.32,0.10,1.09
20.809,0.86,-0.28,0.22,0.93
20.819,0.72,-0.31,0.26,0.82
20.829,0.56,-0.32,0.34,0.73
20.839,0.57,-0.26,0.38,0.73
20.849,0.53,-0.23,0.41,0.71
20.859,0.34,-0.20,0.32,0.51
20.869,0.40,-0.17,0.33,0.55
20.879,0.48,-0.07,0.37,0.61
20.889,0.38,0.05,0.45,0.59
20.899,0.32,0.01,0.58,0.66
20.910,0.31,-0.17,0.67,0.76
20.920,0.42,-0.35,0.64,0.84
20.930,0.51,-0.44,0.61,0.91
20.940,0.59,-0.31,0.59,0.89
20.950,0.57,-0.19,0.53,0.80
20.960,0.51,-0.20,0.47,0.72
20.970,0.50,-0.06,0.40,0.64
20.980,0.58,0.25,0.42,0.76
20.990,0.63,0.41,0.44,0.87
21.000,0.60,0.47,0.55,0.94
21.010,0.57,0.61,0.75,1.12
21.020,0.60,0.89,1.02,1.48
21.030,0.60,1.26,1.18,1.83
21.040,0.47,1.69,1.20,2.13
21.050,0.44,2.05,0.96,2.31
21.061,0.72,2.24,0.75,2.47
21.071,1.22,2.46,0.77,2.85
21.081,1.36,3.01,0.56,3.35
21.091,0.83,3.49,0.19,3.60
21.101,0.31,3.49,-0.16,3.51
21.111,-0.09,3.39,-0.43,3.42
21.121,-0.60,3.27,-0.46,3.36
21.131,-1.00,3.04,-0.67,3.27
21.141,-1.23,2.61,-1.03,3.07
21.151,-1.25,2.08,-1.54,2.87
21.161,-1.20,1.50,-2.21,2.93
21.171,-1.24,0.95,-2.84,3.24
21.181,-1.31,0.51,-3.02,3.33
21.191,-1.29,0.28,-2.81,3.10
21.201,-1.01,0.29,-2.38,2.60
21.211,-0.71,0.45,-1.90,2.08
21.221,-0.55,0.65,-1.59,1.80
21.231,-0.57,0.89,-1.52,1.85
21.241,-0.74,1.12,-1.46,1.99
21.251,-1.05,1.11,-1.26,1.98
21.261,-1.36,0.79,-0.95,1.84
21.272,-1.39,0.26,-0.67,1.57
21.282,-1.24,-0.27,-0.60,1.41
21.292,-0.93,-0.71,-0.40,1.24
21.302,-0.71,-0.92,-0.37,1.22
21.312,-0.56,-0.80,-0.49,1.09
21.322,-0.34,-0.77,-0.64,1.05
21.332,-0.31,-0.95,-0.71,1.23
21.342,-0.19,-1.07,-0.70,1.29
21.352,-0.08,-1.20,-0.68,1.38
21.362,-0.25,-1.47,-0.70,1.65
21.372,-0.43,-1.69,-0.66,1.86
21.382,-0.53,-1.78,-0.57,1.94
21.392,-0.64,-1.77,-0.54,1.95
21.402,-0.67,-1.64,-0.58,1.87
21.413,-0.58,-1.56,-0.59,1.77
21.423,-0.42,-1.50,-0.49,1.64
21.432,-0.15,-1.47,-0.29,1.50
21.443,-0.12,-1.63,-0.32,1.66
21.453,-0.14,-1.87,-0.35,1.91
21.463,-0.22,-1.94,-0.20,1.96
21.473,-0.21,-1.85,-0.08,1.86
21.483,-0.25,-1.68,0.01,1.70
21.493,-0.25,-1.58,0.00,1.60
21.503,-0.23,-1.40,0.06,1.42
21.513,-0.11,-1.16,0.05,1.17
21.523,0.06,-1.08,-0.03,1.08
21.533,-0.02,-1.13,-0.06,1.13
21.543,-0.14,-1.19,0.03,1.20
21.553,-0.29,-1.16,0.15,1.20
21.563,-0.39,-1.05,0.20,1.14
21.573,-0.35,-0.90,0.27,1.01
21.583,-0.20,-0.74,0.40,0.87
21.593,-0.07,-0.61,0.56,0.83
21.603,0.11,-0.51,0.64,0.82
21.613,0.32,-0.38,0.58,0.76
21.624,0.56,-0.26,0.51,0.80
21.634,0.80,-0.22,0.34,0.90
21.644,0.85,-0.27,0.12,0.90
21.654,0.68,-0.29,-0.00,0.74
21.664,0.42,-0.32,0.13,0.55
21.674,0.19,-0.33,0.34,0.51
21.684,0.03,-0.38,0.58,0.70
21.694,-0.07,-0.47,0.78,0.91
21.704,-0.11,-0.55,0.76,0.95
21.714,-0.04,-0.59,0.74,0.95
21.724,0.08,-0.54,0.85,1.01
21.734,0.37,-0.45,1.04,1.19
21.744,0.70,-0.34,1.24,1.46
21.754,1.00,-0.22,1.26,1.62
21.764,1.23,-0.07,1.19,1.71
21.774,1.34,0.08,1.16,1.77
21.784,1.36,0.20,1.10,1.76
21.795,1.31,0.33,1.10,1.74
21.805,1.22,0.28,1.38,1.86
21.815,1.19,0.07,1.82,2.18
21.825,1.33,0.27,1.72,2.19
21.835,1.32,1.23,1.21,2.17
21.845,0.97,2.38,0.68,2.66
21.855,0.26,3.24,0.40,3.27
21.865,-0.58,3.69,0.61,3.79
21.875,-1.31,3.82,1.22,4.22
21.885,-1.53,4.25,1.54,4.78
21.895,-1.48,4.58,1.12,4.94
21.905,-1.33,4.23,0.90,4.53
21.915,-1.12,3.32,0.63,3.56
21.925,-1.05,2.27,0.08,2.50
21.935,-0.92,1.59,-0.38,1.87
21.946,-0.68,1.35,-0.53,1.60
21.956,-0.40,1.26,-0.52,1.42
21.966,-0.20,1.11,-0.61,1.28
21.976,-0.09,0.87,-0.82,1.20
21.986,-0.09,0.61,-1.00,1.18
21.996,-0.17,0.35,-1.16,1.22
22.006,-0.30,0.06,-1.32,1.35
22.016,-0.50,-0.29,-1.45,1.56
22.026,-0.84,-0.52,-1.50,1.80
22.036,-1.13,-0.58,-1.36,1.86
22.046,-1.31,-0.53,-1.10,1.79
22.056,-1.33,-0.50,-0.85,1.66
22.066,-1.16,-0.56,-0.72,1.47
22.076,-0.83,-0.64,-0.67,1.25
22.086,-0.56,-0.80,-0.70,1.20
22.096,-0.38,-1.07,-0.74,1.35
22.106,-0.26,-1.34,-0.87,1.62
22.116,-0.33,-1.46,-0.89,1.74
22.126,-0.33,-1.47,-0.84,1.73
22.137,-0.27,-1.46,-0.74,1.66
22.147,-0.12,-1.51,-0.64,1.64
22.157,-0.04,-1.68,-0.60,1.78
22.167,0.04,-1.87,-0.55,1.95
22.177,0.18,-2.04,-0.49,2.11
22.187,0.44,-2.22,-0.44,2.30
22.197,0.64,-2.34,-0.40,2.46
22.207,0.79,-2.50,-0.36,2.65
22.217,0.90,-2.52,-0.41,2.71
22.227,0.97,-2.38,-0.50,2.62
22.237,0.96,-2.07,-0.60,2.36
22.247,0.76,-1.63,-0.53,1.88
22.258,0.51,-1.37,-0.42,1.52
22.267,0.44,-1.20,-0.45,1.36
22.277,0.30,-1.06,-0.43,1.18
22.287,0.16,-0.96,-0.30,1.02
22.297,0.19,-0.94,-0.15,0.97
22.307,0.43,-0.84,-0.03,0.95
22.318,0.61,-0.67,-0.02,0.91
22.328,0.84,-0.55,-0.01,1.01
22.338,1.04,-0.49,-0.14,1.16
22.348,1.10,-0.50,-0.10,1.21
22.358,1.11,-0.64,-0.04,1.28
22.368,1.06,-0.75,-0.01,1.30
22.378,0.99,-0.62,0.21,1.18
22.388,0.93,-0.37,0.37,1.07
22.398,0.63,-0.07,0.49,0.81
22.408,0.27,-0.06,0.61,0.67
22.418,-0.04,-0.20,0.63,0.66
22.428,-0.17,-0.34,0.63,0.74
22.438,-0.05,-0.39,0.77,0.87
22.448,0.12,-0.28,0.87,0.92
22.458,0.26,-0.23,0.86,0.93
22.468,0.39,-0.27,0.92,1.04
22.478,0.49,-0.30,0.88,1.05
22.489,0.65,-0.22,0.83,1.08
22.499,0.92,-0.15,0.90,1.29
22.509,1.11,-0.12,1.04,1.53
22.519,1.26,-0.07,1.11,1.68
22.529,1.42,0.12,1.14,1.83
22.539,1.52,0.47,1.10,1.93
22.549,1.46,0.90,1.11,2.05
22.559,1.26,1.34,1.06,2.12
22.569,0.74,1.64,1.15,2.13
22.579,0.31,1.89,1.05,2.19
22.589,0.39,2.15,0.96,2.39
22.599,1.01,2.66,1.05,3.03
22.609,1.60,3.44,0.67,3.85
22.619,1.35,4.29,-0.02,4.50
22.629,0.49,4.71,-0.21,4.74
22.639,-0.03,4.53,-0.02,4.53
22.649,-0.03,4.36,0.06,4.36
22.660,-0.01,4.20,-0.16,4.21
22.670,-0.11,3.66,-0.78,3.74
22.680,-0.29,2.85,-1.38,3.18
22.690,-0.49,2.13,-1.84,2.85
22.700,-0.72,1.50,-2.29,2.83
22.710,-1.08,0.87,-2.77,3.09
22.720,-1.36,0.27,-3.09,3.38
22.730,-1.41,-0.09,-3.00,3.32
22.740,-1.35,-0.14,-2.31,2.68
22.750,-1.38,0.03,-1.57,2.08
22.760,-1.34,0.44,-1.12,1.80
22.770,-1.23,0.74,-0.52,1.52
22.780,-1.26,0.54,-0.16,1.38
22.790,-1.25,0.17,0.08,1.27
22.800,-1.06,-0.13,0.54,1.20
22.810,-0.87,-0.33,0.71,1.17
22.820,-0.46,-0.08,0.62,0.78
22.830,-0.01,0.49,0.36,0.61
22.841,0.80,0.64,0.01,1.02
22.850,1.04,0.18,-0.17,1.06
22.861,0.66,-0.39,-0.24,0.80
22.871,0.36,-0.96,-0.40,1.10
22.881,0.13,-1.43,-0.59,1.55
22.891,-0.16,-1.71,-0.57,1.81
22.901,-0.29,-1.94,-0.47,2.02
22.911,-0.34,-2.18,-0.41,2.24
22.921,-0.32,-2.46,-0.38,2.51
22.931,-0.38,-2.74,-0.44,2.80
22.941,-0.50,-2.91,-0.48,2.99
22.951,-0.51,-2.84,-0.39,2.91
22.961,-0.39,-2.75,-0.29,2.79
22.971,-0.32,-2.71,-0.19,2.74
22.981,-0.33,-2.68,-0.12,2.70
22.991,-0.47,-2.55,-0.04,2.60
23.001,-0.43,-2.37,0.01,2.41
23.011,-0.27,-2.17,-0.00,2.19
23.022,-0.23,-2.01,0.04,2.02
23.031,-0.34,-1.87,0.21,1.91
23.042,-0.45,-1.80,0.45,1.91
23.052,-0.53,-1.76,0.52,1.91
23.062,-0.54,-1.67,0.46,1.81
23.072,-0.52,-1.60,0.32,1.71
23.082,-0.39,-1.50,0.23,1.57
23.092,-0.08,-1.43,0.26,1.45
23.102,0.17,-1.29,0.35,1.35
23.112,0.36,-1.03,0.49,1.19
23.122,0.46,-0.61,0.56,0.94
23.132,0.49,-0.17,0.53,0.74
23.142,0.50,0.02,0.56,0.76
23.152,0.49,0.04,0.71,0.87
23.162,0.50,0.03,0.88,1.01
23.172,0.52,0.01,1.16,1.27
23.183,0.59,0.07,1.33,1.46
23.193,0.75,0.21,1.40,1.60
23.203,0.91,0.32,1.43,1.72
23.213,0.96,0.33,1.45,1.77
23.223,1.02,0.31,1.49,1.83
23.233,1.11,0.36,1.49,1.90
23.243,1.19,0.53,1.54,2.02
23.253,1.25,0.91,1.62,2.24
23.263,1.27,1.46,1.61,2.52
23.273,1.12,1.95,1.34,2.62
23.283,0.72,1.73,1.61,2.47
23.293,0.46,1.67,1.69,2.42
23.303,0.60,3.20,1.82,3.73
23.313,0.41,4.98,1.41,5.19
23.323,-0.09,5.37,1.18,5.50
23.333,-0.50,4.87,1.58,5.15
23.344,-1.17,4.50,1.34,4.84
23.353,-1.77,3.72,0.28,4.13
23.364,-1.89,2.54,-0.40,3.19
23.374,-1.52,1.51,-0.46,2.19
23.384,-1.17,0.64,-0.55,1.45
23.394,-0.89,0.12,-0.62,1.09
23.404,-0.58,-0.12,-0.80,0.99
23.414,-0.45,-0.36,-1.17,1.31
23.424,-0.44,-0.61,-1.57,1.74
23.434,-0.55,-0.76,-1.63,1.88
23.444,-0.63,-0.67,-1.53,1.78
23.454,-0.74,-0.42,-1.39,1.63
23.464,-0.87,-0.10,-1.29,1.56
23.474,-0.92,0.23,-1.39,1.68
23.484,-0.87,0.51,-1.49,1.80
23.494,-0.72,0.56,-1.41,1.68
23.504,-0.49,0.28,-1.26,1.38
23.514,-0.30,-0.22,-1.13,1.19
23.524,-0.40,-0.70,-0.95,1.25
23.534,-0.56,-1.06,-0.63,1.35
23.545,-0.61,-1.30,-0.39,1.49
23.555,-0.57,-1.43,-0.27,1.57
23.565,-0.44,-1.46,-0.27,1.55
23.575,-0.27,-1.46,-0.34,1.52
23.585,-0.03,-1.52,-0.42,1.58
23.595,0.17,-1.67,-0.48,1.75
23.605,0.28,-1.90,-0.46,1.98
23.615,0.28,-2.06,-0.43,2.12
23.625,0.36,-2.15,-0.39,2.22
23.635,0.49,-2.07,-0.35,2.16
23.645,0.63,-2.04,-0.36,2.17
23.655,0.43,-1.96,-0.38,2.04
23.667,0.33,-1.88,-0.36,1.94
23.675,0.45,-1.96,-0.36,2.04
23.685,0.41,-1.78,-0.35,1.86
23.695,0.36,-1.55,-0.38,1.64
23.705,0.55,-1.47,-0.46,1.64
23.715,0.59,-1.42,-0.39,1.59
23.726,0.62,-1.30,-0.24,1.46
23.736,0.66,-1.05,-0.13,1.25
23.746,0.69,-0.87,-0.03,1.11
23.756,0.72,-0.77,-0.03,1.05
23.766,0.62,-0.81,-0.03,1.02
23.776,0.48,-0.85,-0.08,0.98
23.786,0.41,-0.83,-0.22,0.95
23.796,0.36,-0.60,-0.21,0.73
23.806,0.23,-0.37,-0.05,0.44
23.816,0.10,-0.38,0.19,0.44
23.826,0.05,-0.55,0.32,0.64
23.836,0.16,-0.59,0.40,0.73
23.846,0.42,-0.50,0.49,0.81
23.856,0.70,-0.30,0.52,0.92
23.866,0.79,-0.11,0.39,0.89
23.876,0.75,-0.09,0.27,0.80
23.886,0.70,-0.07,0.44,0.83
23.897,0.70,0.01,0.70,0.99
23.907,0.77,0.04,0.92,1.20
23.917,0.91,0.01,1.06,1.40
23.927,1.09,0.09,1.03,1.50
23.937,1.22,0.29,0.92,1.55
23.947,1.32,0.42,0.93,1.66
23.957,1.36,0.51,0.83,1.67
23.967,1.36,0.67,0.75,1.69
23.977,1.25,0.92,0.74,1.73
23.987,0.93,1.31,0.64,1.73
23.997,0.63,1.80,0.38,1.95
24.007,0.63,2.21,0.31,2.32
24.017,0.93,2.70,0.57,2.91
24.027,1.20,3.39,0.61,3.65
24.037,0.92,4.05,0.45,4.18
24.047,0.32,4.28,0.32,4.31
24.057,0.09,4.07,0.11,4.07
24.067,0.24,3.99,-0.20,4.00
24.078,0.33,4.08,-0.62,4.14
24.088,-0.05,3.94,-1.36,4.17
24.098,-0.62,3.47,-2.09,4.10
24.108,-1.17,2.71,-2.45,3.83
24.118,-1.69,1.75,-2.49,3.48
24.128,-2.05,0.83,-2.44,3.29
24.138,-2.05,0.12,-2.23,3.03
24.148,-1.84,-0.37,-1.75,2.56
24.158,-1.48,-0.56,-1.20,1.99
24.168,-0.97,-0.38,-0.80,1.31
24.178,-0.50,0.20,-0.59,0.80
24.188,-0.17,0.75,-0.15,0.78
24.198,-0.13,0.95,0.24,0.99
24.208,-0.19,0.83,0.31,0.91
24.218,-0.25,0.70,0.49,0.89
24.228,-0.35,0.63,0.41,0.83
24.238,-0.08,0.49,0.23,0.54
24.249,-0.07,0.47,0.08,0.48
24.259,0.14,0.23,-0.06,0.27
24.269,0.26,-0.35,-0.23,0.49
24.279,-0.01,-0.96,-0.35,1.02
24.289,-0.29,-1.57,-0.52,1.68
24.299,-0.32,-2.06,-0.63,2.18
24.309,-0.31,-2.38,-0.61,2.47
24.319,-0.39,-2.57,-0.55,2.66
24.329,-0.50,-2.68,-0.60,2.79
24.339,-0.36,-2.69,-0.62,2.79
24.349,-0.42,-2.83,-0.67,2.93
24.359,-0.77,-2.91,-0.59,3.06
24.369,-1.01,-2.77,-0.32,2.96
24.379,-0.98,-2.53,-0.16,2.72
24.389,-0.74,-2.32,-0.10,2.43
24.399,-0.47,-2.20,-0.00,2.25
24.410,-0.35,-2.06,0.11,2.09
24.419,-0.16,-1.98,0.18,1.99
24.430,-0.05,-1.80,0.23,1.82
24.440,-0.05,-1.65,0.27,1.67
24.450,0.05,-1.55,0.09,1.55
24.460,0.09,-1.48,-0.17,1.50
24.470,-0.02,-1.46,-0.29,1.49
24.480,-0.21,-1.44,-0.21,1.47
24.490,-0.37,-1.40,-0.10,1.45
24.500,-0.44,-1.34,0.03,1.41
24.510,-0.46,-1.26,0.19,1.36
24.520,-0.47,-1.15,0.28,1.28
24.530,-0.41,-1.00,0.40,1.15
24.540,-0.28,-0.81,0.50,0.99
24.550,-0.09,-0.57,0.52,0.78
24.560,0.05,-0.33,0.58,0.67
24.570,0.12,-0.17,0.61,0.64
24.580,0.31,-0.16,0.60,0.69
24.590,0.37,-0.14,0.67,0.78
24.601,0.50,-0.14,0.81,0.96
24.611,0.65,-0.26,0.96,1.19
24.621,0.77,-0.30,1.05,1.34
24.631,0.89,-0.19,1.03,1.37
24.641,1.03,0.07,0.96,1.41
24.651,1.08,0.31,1.00,1.51
24.661,1.07,0.47,1.11,1.62
24.671,1.01,0.58,1.35,1.78
24.681,0.96,0.77,1.56,1.99
24.691,0.99,1.03,1.59,2.13
24.701,0.95,1.32,1.39,2.14
24.711,0.76,1.29,1.60,2.20
24.721,0.74,1.52,1.33,2.15
24.731,0.88,3.01,0.95,3.28
24.741,0.54,4.79,1.06,4.94
24.751,0.06,5.26,1.28,5.41
24.761,0.25,5.36,1.74,5.64
24.772,-0.04,5.19,1.63,5.44
24.781,-0.88,4.43,1.20,4.67
24.792,-1.22,3.16,0.58,3.44
24.802,-1.02,1.92,0.15,2.18
24.812,-0.67,1.02,-0.04,1.22
24.822,-0.32,0.53,-0.14,0.63
24.832,-0.15,0.41,-0.40,0.59
24.842,-0.37,0.39,-0.75,0.93
24.852,-0.72,0.33,-1.08,1.34
24.862,-1.00,0.20,-1.23,1.60
24.872,-1.28,0.08,-1.40,1.90
24.882,-1.54,0.10,-1.54,2.18
24.892,-1.69,0.10,-1.58,2.32
24.902,-1.84,-0.00,-1.39,2.31
24.912,-1.73,-0.08,-1.04,2.02
24.922,-1.37,-0.18,-0.77,1.58
24.933,-0.84,-0.35,-0.64,1.11
24.942,-0.36,-0.60,-0.62,0.94
24.953,-0.01,-0.95,-0.65,1.15
24.963,0.19,-1.29,-0.66,1.47
24.973,0.24,-1.60,-0.63,1.74
24.983,0.18,-1.80,-0.55,1.89
24.993,0.27,-1.91,-0.51,2.00
25.003,0.30,-2.02,-0.48,2.09
25.013,0.34,-2.12,-0.56,2.22
25.023,0.32,-2.29,-0.62,2.40
25.033,0.40,-2.57,-0.71,2.70
25.043,0.33,-2.77,-0.71,2.88
25.053,0.29,-2.97,-0.75,3.08
25.063,0.33,-3.02,-0.85,3.15
25.073,0.27,-2.84,-0.73,2.94
25.083,0.14,-2.82,-0.57,2.88
25.093,0.10,-2.89,-0.46,2.93
25.103,0.18,-2.86,-0.36,2.88
25.113,0.26,-2.56,-0.31,2.59
25.124,0.34,-2.01,-0.37,2.08
25.134,0.41,-1.47,-0.45,1.59
25.144,0.45,-1.02,-0.46,1.21
25.154,0.54,-0.66,-0.32,0.91
25.164,0.65,-0.33,-0.13,0.74
25.176,0.72,-0.08,-0.01,0.73
25.184,0.72,-0.04,0.09,0.73
25.194,0.74,-0.11,0.15,0.76
25.204,0.85,-0.18,0.19,0.89
25.214,0.88,-0.25,0.31,0.97
25.224,0.86,-0.26,0.39,0.98
25.234,0.83,-0.24,0.41,0.95
25.244,0.79,-0.23,0.49,0.96
25.254,0.78,-0.13,0.56,0.97
25.264,0.82,0.03,0.66,1.05
25.274,0.82,0.24,0.76,1.14
25.284,0.69,0.37,0.78,1.11
25.295,0.55,0.22,0.89,1.06
25.304,0.48,-0.04,1.03,1.14
25.315,0.52,-0.11,1.08,1.20
25.325,0.58,-0.03,1.02,1.17
25.335,0.52,0.05,0.94,1.08
25.345,0.53,0.12,0.80,0.97
25.355,0.61,0.18,0.63,0.90
25.365,0.65,0.35,0.62,0.96
25.375,0.70,0.71,0.59,1.16
25.385,0.75,1.02,0.61,1.41
25.395,0.71,1.23,0.65,1.56
25.405,0.66,1.42,0.72,1.72
25.415,0.53,1.61,1.01,1.97
25.425,0.48,1.90,1.14,2.27
25.435,0.74,2.19,1.00,2.52
25.445,1.25,2.55,0.85,2.96
25.455,1.40,3.16,0.68,3.52
25.465,0.96,3.90,0.30,4.03
25.476,0.25,4.32,0.11,4.32
25.486,-0.27,4.24,0.02,4.25
25.496,-0.35,3.99,-0.35,4.02
25.506,-0.24,3.59,-0.75,3.68
25.516,-0.25,3.05,-1.23,3.30
25.526,-0.39,2.45,-1.82,3.08
25.536,-0.70,1.73,-2.10,2.80
25.546,-1.16,0.95,-2.03,2.52
25.556,-1.39,0.31,-1.96,2.42
25.566,-1.44,0.03,-2.01,2.48
25.576,-1.31,0.09,-1.86,2.28
25.586,-1.05,0.41,-1.55,1.92
25.596,-0.74,0.86,-1.22,1.66
25.607,-0.49,1.25,-1.20,1.80
25.616,-0.46,1.36,-1.13,1.83
25.626,-0.66,1.06,-0.74,1.46
25.637,-0.90,0.50,-0.39,1.10
25.647,-0.98,-0.27,-0.11,1.02
25.657,-1.27,-0.82,-0.08,1.51
25.667,-1.33,-0.93,-0.06,1.62
25.677,-1.04,-0.96,0.07,1.42
25.687,-0.87,-0.84,0.23,1.23
25.697,-0.40,-0.66,0.14,0.78
25.707,-0.00,-0.88,-0.11,0.88
25.717,0.09,-1.23,-0.25,1.25
25.727,0.07,-1.57,-0.38,1.62
25.737,0.06,-1.86,-0.67,1.98
25.747,0.00,-1.97,-0.82,2.13
25.757,-0.13,-2.09,-0.83,2.25
25.767,-0.19,-2.22,-0.81,2.37
25.777,-0.07,-2.38,-0.88,2.54
25.787,-0.12,-2.55,-0.81,2.68
25.798,-0.31,-2.59,-0.63,2.68
25.807,-0.37,-2.49,-0.55,2.58
25.817,-0.27,-2.40,-0.53,2.47
25.827,-0.28,-2.30,-0.46,2.36
25.838,-0.42,-2.19,-0.23,2.24
25.848,-0.40,-2.09,0.02,2.13
25.858,-0.27,-2.02,0.29,2.06
25.868,-0.20,-1.96,0.43,2.01
25.878,-0.20,-1.86,0.49,1.93
25.888,-0.15,-1.75,0.50,1.83
25.898,-0.07,-1.59,0.37,1.63
25.908,-0.00,-1.34,0.31,1.37
25.918,0.10,-1.06,0.19,1.08
25.928,0.12,-0.88,0.08,0.89
25.938,0.07,-0.88,0.07,0.89
25.948,-0.11,-0.72,0.18,0.75
25.958,-0.16,-0.58,0.36,0.70
25.968,-0.21,-0.48,0.49,0.72
25.978,-0.16,-0.38,0.54,0.68
25.988,0.03,-0.30,0.49,0.57
25.998,0.13,-0.25,0.53,0.60
26.009,0.22,-0.22,0.67,0.74
26.019,0.37,-0.26,0.96,1.06
26.029,0.54,-0.34,1.23,1.38
26.039,0.70,-0.41,1.32,1.55
26.049,0.84,-0.45,1.44,1.73
26.059,0.96,-0.51,1.50,1.85
26.069,1.00,-0.55,1.43,1.83
26.079,0.99,-0.51,1.34,1.75
26.089,1.01,-0.32,1.38,1.74
26.099,1.07,0.04,1.45,1.81
26.109,1.04,0.60,1.28,1.76
26.119,0.82,1.04,1.21,1.80
26.129,0.60,0.96,1.88,2.20
26.139,0.65,1.31,2.00,2.48
26.149,0.84,2.78,1.52,3.28
26.159,0.60,4.56,0.87,4.68
26.169,-0.02,5.34,0.51,5.36
26.180,-0.66,4.83,1.07,4.99
26.190,-1.16,4.19,1.74,4.68
26.200,-1.60,4.26,1.49,4.79
26.210,-1.74,4.24,1.10,4.72
26.220,-1.28,3.80,0.91,4.11
26.230,-0.82,3.00,0.57,3.16
26.240,-0.68,2.39,0.06,2.49
26.250,-0.65,2.09,-0.42,2.23
26.260,-0.67,1.96,-0.57,2.15
26.270,-0.73,1.76,-0.62,2.00
26.280,-0.68,1.28,-0.71,1.61
26.290,-0.64,0.68,-0.88,1.29
26.300,-0.63,0.12,-1.10,1.27
26.310,-0.59,-0.35,-1.20,1.38
26.320,-0.51,-0.58,-1.32,1.53
26.330,-0.49,-0.63,-1.31,1.54
26.341,-0.53,-0.52,-1.24,1.45
26.350,-0.54,-0.28,-1.15,1.30
26.361,-0.45,-0.10,-1.13,1.22
26.371,-0.28,-0.18,-1.17,1.21
26.381,-0.03,-0.46,-1.19,1.27
26.391,0.11,-0.80,-1.10,1.36
26.401,0.16,-1.18,-0.93,1.51
26.411,0.02,-1.60,-0.73,1.76
26.421,-0.18,-2.04,-0.52,2.11
26.431,-0.31,-2.57,-0.46,2.63
26.441,-0.40,-3.10,-0.52,3.17
26.451,-0.29,-3.42,-0.62,3.48
26.461,-0.10,-3.67,-0.51,3.71
26.471,-0.07,-3.92,-0.50,3.96
26.481,0.01,-4.11,-0.58,4.15
26.491,0.18,-3.76,-0.69,3.83
26.501,0.25,-3.32,-0.76,3.42
26.512,0.30,-3.15,-0.76,3.26
26.521,0.47,-3.05,-0.74,3.17
26.532,0.45,-2.67,-0.61,2.78
26.542,0.54,-2.26,-0.60,2.40
26.552,0.61,-1.90,-0.64,2.10
26.562,0.59,-1.44,-0.57,1.66
26.572,0.68,-0.94,-0.50,1.26
26.582,0.82,-0.59,-0.44,1.11
26.592,0.94,-0.38,-0.33,1.06
26.603,1.04,-0.13,-0.34,1.11
26.612,1.08,0.12,-0.26,1.12
26.622,1.07,0.22,-0.06,1.09
26.632,0.99,0.24,0.07,1.02
26.642,0.90,0.23,0.22,0.95
26.652,0.76,0.09,0.47,0.90
26.662,0.86,-0.15,0.88,1.24
26.672,0.98,-0.24,1.06,1.47
26.682,1.03,-0.22,0.95,1.42
26.692,0.95,-0.30,0.75,1.25
26.702,0.82,-0.42,0.69,1.15
26.713,0.69,-0.47,0.58,1.01
26.723,0.61,-0.42,0.57,0.94
26.733,0.54,-0.38,0.68,0.95
26.743,0.55,-0.37,0.52,0.85
26.753,0.66,-0.33,0.33,0.81
26.763,0.79,-0.25,0.23,0.86
26.773,0.79,-0.07,0.11,0.80
26.783,0.63,0.17,0.09,0.66
26.793,0.38,0.34,0.08,0.51
26.803,0.14,0.27,0.16,0.34
26.813,-0.05,0.13,0.29,0.32
26.823,-0.03,0.04,0.51,0.51
26.833,0.18,0.15,0.77,0.80
26.843,0.50,0.29,1.06,1.21
26.853,0.86,0.44,1.24,1.57
26.864,1.17,0.68,1.31,1.88
26.874,1.22,0.88,1.36,2.03
26.883,1.17,1.10,1.28,2.06
26.894,1.13,1.43,1.29,2.23
26.904,1.20,1.93,1.41,2.67
26.914,1.25,2.70,1.43,3.30
26.924,1.02,3.65,1.13,3.96
26.934,0.56,4.49,1.01,4.64
26.944,0.22,4.89,1.12,5.02
26.954,0.41,5.14,0.71,5.20
26.964,0.49,5.16,-0.12,5.19
26.974,0.21,4.90,-0.83,4.97
26.984,-0.03,4.40,-1.60,4.69
26.994,-0.13,3.39,-2.17,4.03
27.004,-0.41,2.16,-2.53,3.36
27.014,-0.94,1.14,-2.64,3.02
27.024,-1.29,0.36,-2.57,2.90
27.034,-1.39,-0.16,-2.52,2.88
27.045,-1.35,-0.30,-2.36,2.73
27.054,-1.28,0.03,-2.07,2.44
27.065,-1.14,0.70,-1.78,2.22
27.075,-0.94,1.30,-1.49,2.19
27.085,-0.87,1.60,-1.26,2.21
27.095,-0.93,1.63,-1.13,2.19
27.105,-1.06,1.34,-0.91,1.94
27.115,-1.16,0.80,-0.58,1.52
27.125,-0.98,-0.06,-0.21,1.01
27.135,-0.77,-0.89,0.18,1.19
27.145,-0.70,-1.26,0.39,1.49
27.155,-0.51,-1.53,0.29,1.63
27.165,-0.38,-1.65,0.10,1.70
27.175,-0.15,-1.78,-0.16,1.79
27.185,0.04,-1.98,-0.35,2.01
27.195,0.10,-2.05,-0.34,2.08
27.205,0.16,-2.14,-0.31,2.17
27.216,0.24,-2.19,-0.36,2.24
27.225,0.30,-2.25,-0.43,2.31
27.236,0.17,-2.44,-0.64,2.53
27.246,-0.19,-2.83,-0.88,2.97
27.256,-0.69,-3.23,-0.90,3.43
27.266,-1.17,-3.51,-0.89,3.80
27.276,-1.49,-3.44,-0.82,3.84
27.286,-1.65,-3.17,-0.72,3.65
27.296,-1.69,-2.88,-0.63,3.40
27.306,-1.59,-2.59,-0.54,3.08
27.316,-1.24,-2.26,-0.44,2.61
27.326,-0.86,-1.89,-0.30,2.10
27.336,-0.64,-1.62,-0.07,1.74
27.346,-0.40,-1.39,0.02,1.44
27.356,-0.07,-1.16,-0.10,1.16
27.366,0.19,-0.98,-0.24,1.03
27.376,0.33,-0.86,-0.19,0.95
27.386,0.35,-0.73,-0.00,0.81
27.396,0.29,-0.46,0.17,0.57
27.407,0.18,-0.24,0.29,0.42
27.417,-0.01,-0.09,0.35,0.36
27.427,-0.14,-0.07,0.45,0.48
27.437,-0.22,-0.18,0.34,0.44
27.447,-0.21,-0.31,0.08,0.38
27.457,-0.15,-0.40,-0.05,0.43
27.467,-0.15,-0.43,0.02,0.46
27.477,-0.05,-0.43,0.17,0.47
27.487,0.18,-0.40,0.25,0.50
27.497,0.32,-0.26,0.36,0.55
27.507,0.47,-0.14,0.38,0.62
27.517,0.60,-0.19,0.36,0.73
27.527,0.61,-0.29,0.41,0.79
27.537,0.52,-0.43,0.48,0.83
27.547,0.32,-0.64,0.51,0.88
27.557,0.11,-0.84,0.47,0.96
27.567,-0.08,-0.90,0.51,1.04
27.578,-0.17,-0.76,0.57,0.97
27.588,-0.26,-0.56,0.67,0.91
27.598,-0.28,-0.38,0.82,0.95
27.608,-0.28,-0.31,0.82,0.92
27.618,-0.27,-0.38,0.79,0.92
27.628,-0.15,-0.41,0.76,0.88
27.638,-0.02,-0.38,0.89,0.97
27.648,0.19,-0.45,1.03,1.14
27.658,0.44,-0.43,1.06,1.23
27.668,0.63,-0.16,0.98,1.17
27.678,0.70,0.27,0.83,1.12
27.688,0.87,1.01,0.55,1.44
27.698,0.99,1.83,0.23,2.10
27.708,0.78,2.43,0.00,2.55
27.718,0.32,2.63,-0.21,2.66
27.728,-0.16,2.34,-0.31,2.36
27.738,-0.48,1.51,-0.15,1.59
27.749,-0.56,0.57,0.20,0.82
27.758,-0.47,-0.19,0.54,0.74
27.769,-0.25,-0.66,0.68,0.98
27.779,-0.23,-0.88,0.70,1.15
27.789,-0.25,-0.85,0.70,1.13
27.799,-0.14,-0.55,0.58,0.81
27.809,-0.07,-0.13,0.43,0.46
27.819,-0.18,0.23,0.32,0.43
27.829,-0.38,0.39,0.08,0.55
27.839,-0.50,0.45,-0.13,0.69
27.849,-0.59,0.36,-0.23,0.73
27.859,-0.67,0.15,-0.29,0.75
27.869,-0.60,-0.03,-0.49,0.77
27.879,-0.44,-0.22,-0.52,0.72
27.889,-0.48,-0.45,-0.45,0.80
27.900,-0.69,-0.78,-0.62,1.21
27.910,-0.82,-1.07,-0.90,1.62
27.920,-0.78,-1.11,-1.14,1.77
27.930,-0.56,-0.86,-1.38,1.72
27.940,-0.34,-0.39,-1.53,1.61
27.950,-0.24,0.13,-1.64,1.66
27.960,-0.23,0.53,-1.69,1.79
27.970,-0.28,0.88,-1.77,2.00
27.980,-0.34,1.16,-1.91,2.26
27.990,-0.39,1.17,-1.88,2.25
28.000,-0.48,0.96,-1.78,2.08
28.010,-0.50,0.70,-1.51,1.74
28.020,-0.44,0.56,-1.18,1.38
28.030,-0.38,0.39,-0.85,1.01
28.040,-0.38,0.20,-0.60,0.74
28.050,-0.34,0.07,-0.44,0.56
28.060,-0.19,-0.04,-0.28,0.34
28.070,0.03,-0.20,-0.26,0.33
28.080,0.33,-0.41,-0.36,0.64
28.090,0.60,-0.65,-0.50,1.02
28.100,0.75,-0.76,-0.64,1.25
28.111,0.77,-0.63,-0.73,1.24
28.121,0.67,-0.35,-0.81,1.11
28.131,0.47,-0.04,-0.80,0.93
28.141,0.33,0.17,-0.68,0.77
28.151,0.26,0.21,-0.56,0.65
28.161,0.19,0.15,-0.46,0.52
28.171,0.25,0.05,-0.52,0.58
28.181,0.24,-0.03,-0.62,0.67
28.191,0.20,-0.02,-0.72,0.74
28.201,0.08,0.13,-0.75,0.77
28.211,-0.09,0.21,-0.76,0.80
28.221,-0.27,0.25,-0.70,0.79
28.231,-0.42,0.22,-0.60,0.77
28.241,-0.59,0.24,-0.50,0.81
28.251,-0.76,0.22,-0.41,0.89
28.261,-0.69,0.14,-0.30,0.76
28.272,-0.45,0.06,-0.21,0.50
28.282,-0.20,-0.02,-0.33,0.38
28.292,0.06,-0.11,-0.43,0.45
28.302,0.21,-0.11,-0.57,0.62
28.312,0.27,0.05,-0.66,0.71
28.322,0.28,0.20,-0.51,0.62
28.332,0.24,0.24,-0.55,0.65
28.342,0.08,0.17,-0.60,0.63
28.352,-0.12,0.03,-0.38,0.40
28.362,-0.27,-0.02,-0.20,0.34
28.372,-0.32,0.04,-0.05,0.32
28.382,-0.42,0.10,0.00,0.43
28.392,-0.43,0.07,-0.00,0.44
28.402,-0.24,0.01,-0.03,0.24
28.412,0.01,-0.04,-0.19,0.20
28.422,0.20,-0.03,-0.30,0.37
28.433,0.28,-0.06,-0.34,0.44
28.442,0.24,-0.14,-0.24,0.37
28.453,0.12,-0.18,-0.07,0.23
28.463,-0.07,-0.23,0.01,0.24
28.473,-0.22,-0.19,0.06,0.30
28.483,-0.35,-0.14,0.06,0.38
28.493,-0.44,-0.08,0.02,0.45
28.503,-0.51,-0.05,-0.04,0.51
28.513,-0.61,-0.07,-0.02,0.62
28.523,-0.63,-0.11,0.10,0.64
28.533,-0.52,-0.17,0.27,0.61
28.543,-0.37,-0.18,0.34,0.53
28.553,-0.28,-0.18,0.24,0.41
28.563,-0.24,-0.14,0.14,0.31
28.573,-0.17,-0.08,0.03,0.19
28.583,-0.08,-0.01,0.00,0.08
28.593,0.07,0.06,0.06,0.11
28.603,0.21,0.08,0.08,0.24
28.613,0.29,0.04,0.02,0.29
28.624,0.36,-0.01,-0.09,0.38
28.633,0.34,-0.03,-0.22,0.41
28.644,0.19,-0.05,-0.24,0.31
28.654,0.03,-0.05,-0.18,0.19
28.664,-0.11,-0.01,-0.12,0.16
28.674,-0.21,0.04,-0.04,0.22
28.684,-0.24,0.10,0.03,0.27
28.694,-0.16,0.12,0.06,0.21
28.704,-0.04,0.06,0.09,0.12
28.714,0.01,0.01,0.10,0.10
28.724,0.01,-0.06,0.10,0.11
28.734,0.04,-0.08,0.07,0.11
28.744,0.08,-0.10,0.01,0.12
28.754,0.06,-0.12,-0.07,0.15
28.764,0.02,-0.14,-0.07,0.16
28.774,-0.08,-0.08,0.03,0.12
28.784,-0.09,0.05,0.08,0.13
28.795,-0.03,0.10,0.10,0.15
28.804,0.04,0.10,0.01,0.10
28.815,0.00,0.07,-0.12,0.13
28.825,-0.03,0.01,-0.17,0.17
28.835,-0.02,-0.02,-0.15,0.15
28.845,0.05,-0.06,-0.11,0.14
28.855,0.14,-0.07,-0.10,0.19
28.865,0.14,-0.06,0.04,0.16
28.875,0.10,-0.14,0.14,0.22
28.885,0.04,-0.22,0.18,0.28
28.895,-0.02,-0.27,0.18,0.32
28.905,0.02,-0.10,0.12,0.16
28.915,-0.07,0.03,0.22,0.23
28.925,-0.02,0.15,0.12,0.19
28.935,0.01,0.20,0.13,0.24
28.945,0.05,0.19,0.25,0.32
