time,ax,ay,az,atotal
0.000,0.08,-0.01,0.32,0.33
0.010,0.01,-0.13,0.32,0.35
0.020,-0.06,-0.26,0.31,0.41
0.030,-0.18,-0.38,0.34,0.54
0.040,-0.21,-0.40,0.36,0.58
0.050,-0.17,-0.31,0.36,0.51
0.060,-0.12,-0.19,0.32,0.39
0.070,-0.06,-0.11,0.27,0.30
0.080,-0.11,-0.06,0.26,0.29
0.090,-0.04,-0.00,0.30,0.30
0.100,0.25,0.16,0.38,0.48
0.110,-0.22,-0.16,0.24,0.36
0.121,-0.29,-0.24,0.25,0.45
0.131,-0.23,-0.17,0.32,0.43
0.141,-0.17,-0.13,0.39,0.44
0.151,-0.11,-0.12,0.38,0.41
0.161,-0.08,-0.13,0.32,0.36
0.171,-0.05,-0.17,0.30,0.34
0.181,0.01,-0.22,0.29,0.36
0.191,0.03,-0.21,0.31,0.38
0.201,0.07,-0.19,0.33,0.39
0.211,0.08,-0.14,0.39,0.42
0.221,0.15,-0.07,0.41,0.44
0.231,0.22,-0.13,0.38,0.45
0.241,0.21,-0.15,0.42,0.49
0.251,0.21,-0.13,0.36,0.43
0.261,0.16,-0.09,0.38,0.43
0.271,0.24,-0.00,0.45,0.51
0.281,0.11,-0.17,0.32,0.38
0.291,0.10,-0.04,0.29,0.31
0.302,0.10,0.04,0.21,0.24
0.312,0.15,-0.12,0.26,0.32
0.322,0.20,-0.18,0.31,0.41
0.332,0.22,-0.25,0.28,0.44
0.342,0.15,-0.28,0.17,0.36
0.352,-0.01,-0.30,0.06,0.31
0.362,-0.13,-0.33,-0.03,0.35
0.372,-0.25,-0.26,0.01,0.36
0.382,-0.36,-0.11,0.11,0.39
0.392,-0.48,-0.02,0.16,0.50
0.402,-0.57,-0.04,0.21,0.61
0.412,-0.59,-0.06,0.19,0.63
0.422,-0.54,-0.04,0.14,0.56
0.432,-0.44,-0.07,0.12,0.46
0.442,-0.30,-0.14,0.10,0.35
0.452,-0.17,-0.14,0.04,0.22
0.463,-0.09,-0.06,-0.03,0.11
0.473,-0.07,0.04,-0.06,0.10
0.482,-0.10,0.07,-0.03,0.13
0.493,-0.26,0.04,-0.05,0.26
0.503,-0.49,-0.09,-0.14,0.52
0.513,-0.68,-0.27,-0.12,0.74
0.523,-0.74,-0.41,0.13,0.86
0.533,-0.60,-0.47,0.35,0.84
0.543,-0.30,-0.40,0.37,0.62
0.553,0.01,-0.31,0.29,0.42
0.563,0.21,-0.18,0.14,0.32
0.573,0.31,-0.05,-0.01,0.31
0.583,0.31,0.05,-0.18,0.36
0.593,0.26,0.10,-0.23,0.36
0.603,0.15,0.09,-0.18,0.25
0.613,0.06,0.02,-0.02,0.06
0.623,0.08,-0.01,0.10,0.13
0.633,0.17,-0.02,0.02,0.18
0.643,0.25,0.02,-0.08,0.26
0.654,0.33,0.11,-0.11,0.36
0.664,0.42,0.22,-0.11,0.49
0.673,0.53,0.29,-0.13,0.62
0.684,0.55,0.32,-0.19,0.66
0.694,0.42,0.27,-0.20,0.53
0.704,0.29,0.23,-0.17,0.41
0.714,0.23,0.23,-0.09,0.34
0.724,0.28,0.26,0.02,0.39
0.734,0.38,0.30,-0.01,0.48
0.744,0.41,0.31,-0.12,0.53
0.754,0.32,0.27,-0.19,0.46
0.764,0.18,0.34,-0.23,0.45
0.774,0.09,0.48,-0.18,0.52
0.784,-0.03,0.52,-0.07,0.52
0.794,0.00,0.33,0.09,0.35
0.804,0.06,0.09,0.21,0.23
0.814,0.19,-0.21,0.23,0.36
0.824,0.41,-0.45,0.28,0.67
0.835,0.75,-0.51,0.34,0.97
0.844,1.05,-0.40,0.35,1.18
0.854,1.19,-0.25,0.26,1.24
0.865,1.15,-0.17,0.18,1.17
0.875,1.08,-0.14,0.16,1.10
0.885,1.03,-0.16,0.19,1.06
0.895,0.88,-0.15,0.23,0.92
0.905,0.73,-0.06,0.28,0.79
0.915,0.57,-0.02,0.31,0.65
0.925,0.45,0.03,0.39,0.60
0.935,0.43,0.02,0.43,0.61
0.945,0.44,0.00,0.33,0.55
0.955,0.43,0.01,0.13,0.45
0.965,0.40,0.03,0.04,0.40
0.975,0.37,0.02,0.04,0.37
0.985,0.36,0.03,0.10,0.38
0.995,0.31,0.05,0.27,0.41
1.005,0.36,0.09,0.34,0.50
1.016,0.47,0.09,0.27,0.55
1.026,0.52,-0.01,0.13,0.54
1.036,0.57,-0.15,0.13,0.60
1.046,0.61,-0.28,0.24,0.72
1.056,0.66,-0.32,0.36,0.81
1.066,0.71,-0.32,0.41,0.88
1.076,0.72,-0.30,0.34,0.85
1.086,0.73,-0.28,0.24,0.81
1.096,0.73,-0.23,0.23,0.80
1.106,0.71,-0.18,0.37,0.82
1.116,0.75,-0.17,0.56,0.95
1.126,0.85,-0.12,0.65,1.08
1.136,0.94,0.02,0.61,1.12
1.146,0.94,0.09,0.46,1.05
1.156,0.88,-0.02,0.39,0.96
1.166,0.80,-0.14,0.42,0.91
1.176,0.78,-0.08,0.54,0.95
1.186,0.80,0.07,0.58,0.99
1.196,0.82,0.28,0.52,1.01
1.206,0.77,0.43,0.42,0.98
1.217,0.71,0.47,0.34,0.91
1.227,0.65,0.42,0.30,0.83
1.237,0.62,0.51,0.32,0.86
1.247,0.67,0.49,0.43,0.93
1.257,0.81,0.35,0.58,1.06
1.267,0.87,0.26,0.77,1.19
1.277,0.88,0.16,0.86,1.24
1.287,0.90,0.07,0.88,1.26
1.297,0.94,0.04,0.93,1.32
1.307,1.08,0.08,1.14,1.57
1.317,1.38,0.22,1.32,1.92
1.327,1.74,0.56,1.09,2.13
1.337,2.13,1.03,0.85,2.51
1.347,2.43,1.33,0.68,2.86
1.357,2.34,1.67,0.29,2.89
1.367,1.70,2.15,-0.14,2.74
1.377,0.83,2.65,-0.32,2.79
1.388,0.14,3.07,-0.15,3.07
1.398,-0.13,3.13,0.18,3.14
1.408,-0.22,3.03,0.24,3.04
1.418,-0.48,2.97,0.07,3.01
1.428,-0.98,2.82,-0.16,2.99
1.438,-1.31,2.37,-0.23,2.71
1.448,-1.29,1.76,-0.30,2.20
1.458,-1.23,1.31,-0.50,1.86
1.468,-1.17,1.01,-0.74,1.72
1.478,-1.05,0.70,-0.83,1.51
1.488,-0.91,0.30,-0.86,1.29
1.498,-0.78,0.04,-0.88,1.17
1.508,-0.64,-0.09,-1.17,1.34
1.518,-0.47,0.04,-1.62,1.69
1.528,-0.33,0.46,-1.79,1.88
1.538,-0.07,0.86,-1.61,1.83
1.548,0.08,1.25,-1.25,1.77
1.558,0.25,1.51,-0.82,1.74
1.569,0.35,1.24,-0.51,1.39
1.579,0.37,0.53,-0.15,0.66
1.589,0.30,-0.02,0.30,0.42
1.599,0.22,-0.23,0.51,0.60
1.609,0.13,-0.36,0.68,0.78
1.619,0.11,-0.03,0.87,0.88
1.629,0.31,0.23,0.56,0.68
1.639,0.17,0.15,0.40,0.46
1.649,-0.18,-0.21,0.11,0.30
1.659,-0.39,-0.67,-0.18,0.79
1.669,-0.56,-1.02,-0.41,1.23
1.679,-0.75,-1.34,-0.58,1.65
1.689,-0.87,-1.69,-0.67,2.01
1.699,-0.96,-1.97,-0.74,2.31
1.709,-0.98,-2.06,-0.69,2.38
1.719,-0.85,-2.05,-0.53,2.29
1.730,-0.62,-2.04,-0.46,2.18
1.740,-0.43,-1.97,-0.57,2.10
1.750,-0.34,-1.91,-0.68,2.06
1.760,-0.28,-1.96,-0.63,2.08
1.770,-0.32,-2.10,-0.59,2.20
1.780,-0.39,-2.16,-0.55,2.26
1.790,-0.29,-2.15,-0.42,2.21
1.800,-0.12,-2.18,-0.29,2.20
1.810,-0.15,-2.17,-0.16,2.18
1.820,-0.21,-2.18,-0.02,2.19
1.830,-0.26,-2.18,0.16,2.20
1.840,-0.20,-2.07,0.30,2.10
1.850,-0.02,-1.85,0.34,1.88
1.860,0.08,-1.46,0.42,1.52
1.870,0.26,-1.01,0.53,1.17
1.880,0.46,-0.68,0.54,0.98
1.890,0.54,-0.37,0.53,0.84
1.900,0.61,-0.13,0.39,0.74
1.910,0.54,0.03,0.29,0.61
1.920,0.31,0.15,0.25,0.42
1.931,0.18,0.26,0.25,0.40
1.940,0.11,0.30,0.43,0.53
1.951,-0.07,0.34,0.58,0.68
1.961,-0.18,0.42,0.50,0.68
1.971,-0.19,0.34,0.58,0.70
1.981,-0.17,0.26,0.71,0.78
1.991,-0.08,0.13,0.83,0.84
2.001,0.03,-0.09,0.97,0.98
2.011,0.17,-0.32,1.16,1.21
2.021,0.38,-0.44,1.26,1.38
2.031,0.62,-0.41,1.21,1.42
2.041,0.77,-0.26,1.23,1.47
2.051,0.87,0.09,1.35,1.61
2.061,0.96,0.44,1.44,1.79
2.071,1.02,0.79,1.26,1.80
2.081,0.96,0.71,1.29,1.76
2.091,0.81,0.38,1.24,1.53
2.102,0.70,0.55,0.88,1.25
2.112,0.26,1.20,0.59,1.36
2.122,-0.61,1.97,0.17,2.07
2.132,-1.34,2.33,0.16,2.70
2.142,-1.76,2.29,0.46,2.92
2.152,-2.00,2.11,0.66,2.98
2.162,-1.94,1.89,0.85,2.84
2.172,-1.41,1.85,0.90,2.50
2.182,-0.95,2.19,0.71,2.49
2.192,-0.95,2.45,0.49,2.67
2.202,-0.92,2.62,0.39,2.80
2.212,-0.64,2.87,0.02,2.94
2.222,-0.55,2.76,-0.29,2.83
2.232,-0.58,2.24,-0.49,2.37
2.242,-0.40,1.43,-0.62,1.61
2.252,-0.12,0.63,-0.69,0.94
2.262,0.21,0.01,-0.86,0.89
2.272,0.53,-0.26,-0.97,1.13
2.283,0.77,-0.26,-1.12,1.39
2.293,0.88,-0.11,-1.31,1.59
2.303,0.84,0.05,-1.44,1.67
2.313,0.46,0.19,-1.58,1.66
2.323,-0.12,0.25,-1.67,1.70
2.333,-0.72,0.19,-1.61,1.77
2.343,-1.09,0.09,-1.33,1.72
2.353,-1.28,-0.00,-0.96,1.60
2.363,-1.27,-0.13,-0.65,1.43
2.373,-1.04,-0.35,-0.39,1.16
2.383,-0.68,-0.68,-0.16,0.98
2.393,-0.29,-0.96,0.03,1.01
2.403,0.13,-1.30,0.07,1.30
2.413,0.46,-1.50,-0.03,1.57
2.423,0.68,-1.59,-0.14,1.74
2.433,0.86,-1.74,-0.24,1.96
2.443,1.09,-1.87,-0.21,2.17
2.453,1.24,-1.91,-0.20,2.28
2.464,1.32,-1.83,-0.27,2.27
2.473,1.30,-1.75,-0.46,2.23
2.484,1.20,-1.78,-0.60,2.23
2.494,0.82,-1.91,-0.58,2.16
2.504,0.56,-2.07,-0.46,2.20
2.514,0.34,-1.95,-0.29,2.00
2.524,0.16,-1.81,-0.30,1.84
2.534,0.11,-1.74,-0.43,1.79
2.544,0.20,-1.74,-0.24,1.76
2.554,0.32,-1.73,-0.04,1.76
2.564,0.44,-1.68,0.03,1.73
2.574,0.51,-1.60,0.13,1.69
2.584,0.50,-1.50,0.28,1.61
2.594,0.62,-1.53,0.28,1.67
2.604,0.65,-1.68,0.29,1.82
2.614,0.60,-1.68,0.32,1.82
2.624,0.61,-1.37,0.23,1.51
2.634,0.63,-0.82,0.21,1.05
2.645,0.55,-0.21,0.24,0.64
2.655,0.38,0.16,0.31,0.52
2.665,0.19,0.19,0.46,0.53
2.675,0.08,0.18,0.65,0.68
2.685,0.17,0.27,0.67,0.74
2.695,0.34,0.32,0.58,0.74
2.705,0.40,0.31,0.39,0.64
2.715,0.36,0.25,0.21,0.49
2.725,0.39,0.32,0.17,0.53
2.735,0.47,0.44,0.30,0.71
2.745,0.63,0.51,0.45,0.93
2.755,0.96,0.57,0.50,1.22
2.765,1.05,0.66,0.67,1.41
2.775,1.12,0.83,0.84,1.63
2.785,1.23,1.04,0.80,1.80
2.795,1.28,1.15,0.65,1.84
2.805,1.20,1.13,0.62,1.76
2.816,0.98,1.19,0.70,1.69
2.825,0.91,1.27,0.84,1.77
2.836,1.16,1.42,1.06,2.12
2.846,1.59,1.84,1.21,2.72
2.856,1.76,2.58,0.97,3.27
2.866,1.50,3.25,0.49,3.61
2.876,1.26,3.61,0.25,3.83
2.886,1.45,3.88,0.25,4.15
2.896,1.77,4.25,0.10,4.60
2.906,1.57,4.47,-0.31,4.75
2.916,0.78,4.16,-0.86,4.32
2.926,-0.35,3.53,-1.30,3.78
2.936,-1.40,2.79,-1.57,3.49
2.946,-1.99,1.97,-1.81,3.33
2.956,-2.48,1.11,-2.10,3.43
2.966,-3.06,0.21,-2.34,3.85
2.976,-3.29,-0.57,-2.41,4.12
2.986,-2.95,-0.98,-2.31,3.87
2.997,-2.22,-0.98,-1.85,3.05
3.007,-1.49,-0.65,-1.26,2.05
3.017,-0.78,-0.11,-0.92,1.21
3.027,-0.27,0.49,-0.93,1.09
3.037,-0.09,1.14,-0.48,1.24
3.047,-0.13,1.33,0.01,1.34
3.057,-0.33,1.05,0.04,1.11
3.067,-0.42,0.80,0.11,0.91
3.077,-0.35,0.53,0.24,0.68
3.087,-0.20,0.57,0.31,0.68
3.097,0.35,0.61,0.10,0.71
3.107,0.57,0.30,-0.14,0.66
3.117,0.42,-0.30,-0.24,0.57
3.127,0.16,-0.93,-0.49,1.06
3.137,-0.05,-1.44,-0.77,1.64
3.147,-0.17,-1.95,-0.92,2.16
3.158,-0.15,-2.39,-0.84,2.54
3.168,-0.08,-2.80,-0.56,2.86
3.177,-0.11,-2.83,-0.17,2.84
3.188,-0.21,-2.67,0.12,2.69
3.198,-0.30,-2.52,0.16,2.55
3.208,-0.27,-2.31,0.09,2.33
3.218,-0.08,-2.20,-0.07,2.21
3.228,0.12,-2.23,-0.10,2.24
3.238,0.27,-2.32,-0.06,2.33
3.248,0.29,-2.41,0.01,2.42
3.258,0.21,-2.46,-0.06,2.47
3.268,0.21,-2.51,-0.12,2.52
3.278,0.12,-2.54,-0.12,2.55
3.288,-0.10,-2.45,-0.13,2.46
3.298,-0.25,-2.28,0.02,2.29
3.308,-0.36,-2.18,0.18,2.22
3.318,-0.42,-2.13,0.20,2.18
3.328,-0.50,-2.05,0.18,2.12
3.338,-0.58,-1.84,0.12,1.93
3.348,-0.63,-1.63,0.07,1.74
3.359,-0.63,-1.42,0.13,1.56
3.368,-0.55,-1.15,0.38,1.33
3.379,-0.42,-0.85,0.59,1.12
3.389,-0.25,-0.49,0.73,0.91
3.399,0.06,-0.28,0.74,0.79
3.409,0.38,-0.24,0.75,0.88
3.419,0.59,-0.31,0.82,1.06
3.429,0.67,-0.32,1.00,1.24
3.439,0.64,-0.17,1.28,1.44
3.449,0.70,0.10,1.49,1.64
3.459,0.82,0.37,1.52,1.77
3.469,0.92,0.54,1.40,1.76
3.479,1.00,0.60,1.28,1.73
3.489,1.09,0.58,1.24,1.75
3.499,1.22,0.54,1.24,1.82
3.509,1.29,0.54,1.29,1.90
3.520,1.11,0.54,1.29,1.79
3.529,0.79,0.30,1.61,1.82
3.540,0.46,0.14,1.52,1.60
3.550,0.25,0.81,1.09,1.39
3.560,-0.00,2.38,0.99,2.57
3.570,-0.64,4.10,0.66,4.20
3.580,-1.77,4.81,0.78,5.18
3.590,-2.73,4.52,1.29,5.44
3.600,-3.10,4.02,1.59,5.32
3.610,-2.93,3.59,1.57,4.89
3.620,-1.96,3.38,1.32,4.12
3.630,-0.79,3.79,1.26,4.07
3.640,-0.62,3.94,0.78,4.06
3.650,-0.60,3.48,0.04,3.53
3.660,-0.62,2.67,-0.58,2.81
3.670,-0.69,1.78,-0.93,2.12
3.680,-0.65,0.85,-1.23,1.63
3.690,-0.51,-0.05,-1.38,1.47
3.700,-0.45,-0.96,-1.53,1.86
3.710,-0.35,-1.72,-1.55,2.34
3.721,-0.28,-2.08,-1.65,2.67
3.731,-0.29,-1.91,-1.56,2.48
3.741,-0.38,-1.19,-1.35,1.84
3.751,-0.56,-0.31,-1.14,1.31
3.761,-0.61,0.38,-1.05,1.27
3.771,-0.48,0.77,-1.07,1.40
3.781,-0.29,0.87,-1.16,1.47
3.791,-0.15,0.70,-1.05,1.27
3.801,-0.02,0.32,-0.74,0.80
3.811,0.09,-0.11,-0.43,0.46
3.821,0.12,-0.51,-0.26,0.58
3.831,0.28,-0.88,-0.19,0.94
3.841,0.45,-1.25,-0.17,1.34
3.851,0.58,-1.65,-0.19,1.76
3.861,0.73,-2.09,-0.32,2.24
3.871,0.78,-2.36,-0.46,2.53
3.881,0.85,-2.59,-0.42,2.76
3.891,0.93,-2.84,-0.38,3.02
3.901,1.01,-3.03,-0.39,3.22
3.911,1.03,-2.86,-0.31,3.06
3.922,1.01,-2.56,-0.36,2.77
3.932,1.01,-2.35,-0.40,2.59
3.942,0.84,-2.12,-0.47,2.33
3.952,0.68,-2.01,-0.53,2.19
3.962,0.51,-2.06,-0.47,2.18
3.972,0.38,-1.92,-0.37,1.99
3.982,0.47,-1.77,-0.30,1.85
3.992,0.58,-1.68,-0.28,1.80
4.002,0.60,-1.53,-0.37,1.69
4.012,0.60,-1.36,-0.39,1.54
4.022,0.57,-1.06,-0.30,1.24
4.032,0.47,-0.68,-0.27,0.87
4.042,0.38,-0.48,-0.23,0.66
4.052,0.28,-0.43,-0.07,0.52
4.063,0.32,-0.43,0.14,0.56
4.073,0.49,-0.28,0.30,0.64
4.083,0.66,0.08,0.35,0.75
4.093,0.64,0.26,0.31,0.76
4.103,0.51,0.04,0.41,0.66
4.113,0.47,-0.30,0.64,0.85
4.123,0.54,-0.48,0.85,1.12
4.133,0.72,-0.48,0.92,1.26
4.143,0.77,-0.38,0.82,1.18
4.153,0.68,-0.33,0.72,1.04
4.163,0.66,-0.30,0.81,1.09
4.173,0.57,-0.09,0.98,1.14
4.183,0.52,0.24,1.03,1.18
4.193,0.49,0.71,0.78,1.16
4.203,0.44,1.25,0.46,1.40
4.213,0.33,1.48,0.20,1.53
4.223,0.25,1.37,0.12,1.39
4.233,0.27,1.23,0.40,1.33
4.243,0.40,1.25,0.79,1.53
4.253,0.61,1.35,1.08,1.83
4.264,0.71,1.60,0.91,1.98
4.274,0.85,1.87,0.55,2.13
4.284,1.19,1.94,0.69,2.38
4.294,1.80,2.19,1.06,3.02
4.304,2.15,2.84,1.01,3.71
4.314,1.84,3.72,0.49,4.18
4.324,1.01,4.19,0.05,4.31
4.334,0.23,4.20,0.01,4.21
4.344,-0.20,4.07,0.04,4.08
4.354,-0.56,3.75,-0.10,3.79
4.364,-0.95,3.06,-0.34,3.22
4.374,-1.17,2.11,-0.87,2.56
4.384,-1.22,1.08,-1.57,2.26
4.394,-1.37,0.16,-2.16,2.56
4.404,-1.60,-0.55,-2.44,2.97
4.414,-1.66,-0.93,-2.34,3.02
4.424,-1.39,-0.98,-2.07,2.68
4.435,-0.95,-0.78,-1.64,2.05
4.445,-0.55,-0.41,-1.21,1.39
4.455,-0.36,-0.05,-0.97,1.03
4.465,-0.29,0.18,-0.62,0.71
4.475,-0.30,0.28,-0.10,0.43
4.485,-0.32,0.23,0.29,0.49
4.495,-0.17,0.18,0.35,0.43
4.505,0.07,0.27,0.20,0.34
4.515,0.43,0.59,0.05,0.73
4.525,0.74,0.65,-0.16,1.00
4.535,0.63,0.35,-0.37,0.81
4.545,0.13,-0.11,-0.45,0.48
4.555,-0.40,-0.60,-0.38,0.82
4.565,-0.83,-0.91,-0.28,1.27
4.575,-1.13,-1.06,-0.24,1.57
4.585,-1.22,-1.11,-0.11,1.65
4.595,-1.11,-1.15,0.05,1.60
4.605,-0.85,-1.23,0.06,1.50
4.615,-0.65,-1.22,0.02,1.38
4.626,-0.42,-1.26,-0.07,1.33
4.636,-0.11,-1.32,-0.19,1.34
4.646,0.15,-1.33,-0.06,1.34
4.656,0.40,-1.33,0.11,1.40
4.666,0.62,-1.37,0.24,1.52
4.676,0.66,-1.49,0.25,1.65
4.686,0.71,-1.55,0.12,1.71
4.696,0.82,-1.65,0.06,1.85
4.706,0.87,-1.78,0.09,1.99
4.716,0.90,-1.95,0.03,2.15
4.726,0.81,-2.10,-0.11,2.26
4.736,0.38,-2.09,-0.23,2.13
4.746,-0.07,-2.03,-0.35,2.06
4.756,-0.50,-2.02,-0.37,2.11
4.766,-0.83,-2.05,-0.14,2.22
4.776,-1.04,-2.07,0.25,2.33
4.787,-1.11,-2.04,0.56,2.39
4.797,-0.93,-1.97,0.72,2.29
4.807,-0.61,-1.84,0.80,2.10
4.817,-0.25,-1.61,0.81,1.82
4.827,0.20,-1.31,0.88,1.60
4.837,0.56,-0.97,0.93,1.46
4.847,0.80,-0.59,0.85,1.31
4.857,0.94,-0.31,0.71,1.22
4.867,0.94,-0.12,0.65,1.15
4.877,0.83,0.09,0.74,1.12
4.887,0.73,0.29,0.83,1.15
4.897,0.65,0.39,0.98,1.24
4.907,0.55,0.47,1.09,1.31
4.917,0.48,0.61,1.18,1.41
4.927,0.51,0.81,1.25,1.57
4.937,0.66,1.00,1.19,1.69
4.947,0.76,1.23,1.01,1.77
4.957,0.60,1.17,1.12,1.73
4.967,0.27,0.81,1.43,1.66
4.977,0.18,0.95,1.18,1.52
4.988,-0.01,2.11,1.11,2.38
4.998,-0.62,3.69,0.89,3.84
5.008,-1.36,4.27,0.86,4.56
5.018,-1.44,4.44,1.48,4.90
5.028,-1.54,4.86,1.15,5.22
5.038,-1.88,5.12,0.41,5.47
5.048,-1.98,4.64,-0.01,5.05
5.058,-1.74,3.49,-0.18,3.91
5.068,-1.34,2.09,-0.25,2.50
5.078,-0.84,0.95,-0.39,1.32
5.088,-0.23,0.28,-0.59,0.69
5.098,0.34,-0.08,-0.77,0.85
5.108,0.69,-0.22,-0.91,1.16
5.118,0.86,-0.32,-1.01,1.37
5.128,0.82,-0.51,-1.02,1.40
5.138,0.62,-0.70,-1.13,1.47
5.148,0.26,-0.72,-1.35,1.55
5.158,-0.29,-0.55,-1.51,1.63
5.169,-0.82,-0.27,-1.54,1.76
5.179,-1.19,0.02,-1.48,1.90
5.189,-1.32,0.30,-1.34,1.91
5.199,-1.30,0.41,-1.13,1.77
5.209,-1.15,0.28,-0.94,1.51
5.219,-1.03,-0.09,-0.73,1.27
5.229,-1.03,-0.49,-0.49,1.24
5.239,-0.93,-0.85,-0.29,1.29
5.249,-0.65,-1.23,-0.12,1.39
5.259,-0.25,-1.56,-0.10,1.58
5.269,0.16,-1.82,-0.22,1.84
5.279,0.64,-2.14,-0.31,2.25
5.289,0.89,-2.27,-0.43,2.48
5.299,1.07,-2.37,-0.57,2.66
5.309,1.22,-2.56,-0.60,2.90
5.319,1.16,-2.62,-0.60,2.93
5.329,1.04,-2.59,-0.64,2.87
5.340,0.62,-2.32,-0.69,2.50
5.350,0.22,-2.22,-0.71,2.34
5.360,-0.03,-2.15,-0.75,2.28
5.370,-0.17,-2.05,-0.70,2.17
5.380,-0.20,-1.83,-0.59,1.93
5.390,-0.13,-1.45,-0.45,1.52
5.400,0.09,-1.06,-0.41,1.14
5.410,0.24,-0.90,-0.35,1.00
5.420,0.44,-1.00,-0.21,1.11
5.430,0.74,-1.19,-0.14,1.41
5.440,0.96,-1.41,-0.15,1.71
5.450,1.16,-1.48,-0.08,1.89
5.460,1.30,-1.25,0.01,1.81
5.470,1.23,-0.97,0.11,1.57
5.480,0.92,-0.81,0.04,1.23
5.490,0.49,-0.79,0.01,0.93
5.500,0.19,-0.80,0.18,0.85
5.511,0.17,-0.69,0.46,0.84
5.520,0.26,-0.40,0.62,0.79
5.531,0.35,-0.12,0.61,0.72
5.541,0.40,0.16,0.54,0.69
5.551,0.45,0.35,0.59,0.82
5.561,0.51,0.42,0.65,0.93
5.571,0.57,0.40,0.65,0.95
5.581,0.74,0.27,0.64,1.02
5.591,0.94,0.21,0.73,1.21
5.601,1.15,0.18,0.84,1.44
5.611,1.32,0.13,0.89,1.60
5.621,1.42,0.22,0.95,1.72
5.631,1.47,0.41,1.00,1.83
5.641,1.47,0.73,1.07,1.96
5.651,1.39,1.13,1.08,2.09
5.661,1.28,1.49,1.04,2.22
5.671,1.13,1.86,1.26,2.52
5.682,0.98,2.30,1.46,2.89
5.691,0.86,2.66,1.36,3.11
5.701,0.81,2.92,0.87,3.16
5.712,0.71,3.32,0.51,3.44
5.722,0.58,3.93,0.19,3.98
5.732,0.14,4.47,-0.43,4.49
5.742,-0.78,4.55,-0.99,4.72
5.752,-1.61,4.25,-1.04,4.66
5.762,-1.87,3.83,-0.95,4.37
5.772,-1.68,3.33,-1.23,3.93
5.782,-1.75,2.74,-1.72,3.68
5.792,-2.05,1.99,-2.25,3.63
5.802,-2.02,1.08,-2.60,3.46
5.812,-1.69,0.24,-2.65,3.15
5.822,-1.08,-0.24,-2.42,2.66
5.832,-0.44,-0.19,-2.13,2.18
5.842,0.24,0.24,-1.80,1.84
5.853,0.86,0.82,-1.55,1.96
5.863,1.04,1.08,-1.26,1.96
5.873,0.73,0.87,-0.90,1.45
5.882,0.15,0.35,-0.49,0.62
5.892,-0.55,-0.10,0.03,0.56
5.903,-1.06,-0.39,0.44,1.21
5.913,-1.22,-0.33,0.58,1.39
5.923,-0.92,-0.05,0.44,1.02
5.933,-0.18,0.24,0.23,0.37
5.943,0.22,0.07,-0.05,0.23
5.953,0.21,-0.59,-0.38,0.73
5.963,0.21,-1.33,-0.76,1.55
5.973,0.07,-1.95,-0.96,2.18
5.983,-0.24,-2.24,-0.82,2.40
5.993,-0.63,-2.36,-0.60,2.52
6.003,-0.95,-2.44,-0.41,2.65
6.013,-1.05,-2.52,-0.37,2.75
6.023,-1.10,-2.54,-0.46,2.80
6.033,-0.91,-2.47,-0.48,2.68
6.044,-0.60,-2.45,-0.55,2.58
6.054,-0.27,-2.38,-0.56,2.46
6.064,0.06,-2.21,-0.54,2.28
6.074,0.33,-2.12,-0.56,2.22
6.083,0.49,-2.18,-0.53,2.30
6.094,0.22,-2.24,-0.56,2.32
6.104,-0.08,-2.29,-0.49,2.34
6.114,-0.35,-2.34,-0.35,2.39
6.124,-0.47,-2.33,-0.16,2.38
6.134,-0.50,-2.26,-0.06,2.32
6.144,-0.51,-2.08,-0.02,2.14
6.154,-0.51,-1.85,0.16,1.92
6.164,-0.50,-1.66,0.44,1.79
6.174,-0.48,-1.46,0.82,1.74
6.184,-0.31,-1.30,1.06,1.70
6.194,0.11,-1.12,1.11,1.58
6.204,0.57,-0.93,1.02,1.49
6.215,0.98,-0.80,0.77,1.48
6.225,1.18,-0.64,0.54,1.45
6.234,1.22,-0.39,0.45,1.36
6.244,1.09,-0.10,0.52,1.21
6.255,0.81,0.16,0.71,1.09
6.265,0.54,0.30,0.89,1.08
6.275,0.35,0.44,0.91,1.07
6.285,0.32,0.48,0.83,1.01
6.295,0.40,0.37,0.81,0.97
6.305,0.54,0.21,0.77,0.97
6.315,0.71,0.11,0.73,1.02
6.325,0.84,0.18,0.81,1.18
6.335,0.84,0.34,0.95,1.32
6.345,0.80,0.55,1.05,1.43
6.355,0.83,0.71,1.18,1.61
6.365,0.88,0.78,1.35,1.79
6.376,0.93,0.77,1.38,1.84
6.385,0.97,0.76,1.23,1.74
6.396,0.90,0.68,1.01,1.52
6.405,0.34,0.44,0.70,0.89
6.416,-0.21,0.54,0.35,0.68
6.426,-0.52,1.97,0.46,2.08
6.436,-1.21,3.89,0.24,4.08
6.446,-1.54,5.19,0.65,5.45
6.456,-1.38,5.84,0.96,6.08
6.466,-1.21,5.93,1.03,6.14
6.476,-1.00,5.76,0.79,5.90
6.486,-1.04,5.05,0.45,5.18
6.496,-0.83,4.00,0.41,4.11
6.506,-0.38,2.67,0.33,2.72
6.516,0.20,1.23,0.24,1.27
6.526,0.77,0.18,0.00,0.79
6.536,1.14,-0.31,-0.40,1.25
6.546,1.21,-0.57,-0.85,1.58
6.556,0.96,-0.81,-1.10,1.67
6.566,0.43,-1.16,-1.24,1.75
6.576,-0.30,-1.51,-1.41,2.09
6.586,-1.05,-1.60,-1.56,2.47
6.597,-1.68,-1.39,-1.43,2.61
6.607,-2.09,-0.98,-1.07,2.54
6.617,-2.18,-0.54,-0.64,2.33
6.627,-1.89,-0.23,-0.41,1.95
6.637,-1.35,-0.11,-0.44,1.42
6.647,-0.73,-0.20,-0.59,0.96
6.657,-0.13,-0.52,-0.63,0.83
6.667,0.30,-1.05,-0.56,1.22
6.677,0.53,-1.44,-0.50,1.61
6.687,0.70,-1.72,-0.42,1.91
6.697,0.92,-2.07,-0.37,2.30
6.707,1.07,-2.45,-0.32,2.69
6.717,1.01,-2.70,-0.39,2.91
6.727,0.93,-2.87,-0.49,3.06
6.737,0.91,-3.16,-0.49,3.33
6.747,0.93,-3.27,-0.47,3.43
6.758,0.88,-3.10,-0.42,3.25
6.767,0.83,-2.94,-0.35,3.08
6.778,0.69,-2.79,-0.24,2.89
6.788,0.56,-2.58,-0.18,2.65
6.798,0.47,-2.26,-0.18,2.31
6.808,0.35,-1.90,-0.01,1.94
6.818,0.50,-1.54,0.19,1.63
6.828,0.82,-0.95,0.22,1.27
6.838,1.17,-0.20,0.21,1.20
6.848,1.42,0.40,0.01,1.47
6.858,1.36,0.61,-0.30,1.52
6.868,1.15,0.44,-0.38,1.28
6.878,0.88,0.16,-0.29,0.94
6.888,0.53,-0.16,-0.14,0.57
6.898,0.16,-0.51,0.07,0.53
6.908,-0.15,-0.85,0.28,0.91
6.918,-0.37,-0.89,0.41,1.05
6.928,-0.34,-0.77,0.70,1.10
6.938,-0.20,-0.48,0.93,1.06
6.948,0.03,-0.03,0.93,0.93
6.958,0.19,0.17,0.77,0.81
6.969,0.25,0.10,0.66,0.71
6.979,0.26,-0.10,0.67,0.72
6.989,0.36,-0.21,0.74,0.85
6.999,0.56,-0.20,0.68,0.90
7.009,0.79,-0.21,0.57,1.00
7.019,0.88,-0.38,0.55,1.11
7.029,0.93,-0.51,0.44,1.15
7.039,0.86,-0.56,0.41,1.11
7.049,0.85,-0.53,0.43,1.09
7.059,0.77,-0.49,0.42,1.00
7.069,0.70,-0.40,0.46,0.93
7.079,0.81,-0.31,0.60,1.05
7.089,0.86,-0.21,0.89,1.25
7.100,0.93,-0.04,1.18,1.50
7.110,1.05,0.24,1.29,1.69
7.120,1.22,0.67,1.23,1.86
7.130,1.34,1.25,1.16,2.16
7.140,1.29,1.80,1.31,2.57
7.150,1.42,2.33,1.38,3.06
7.160,1.76,2.77,1.49,3.60
7.170,2.23,3.35,1.61,4.33
7.180,2.65,4.11,1.44,5.10
7.190,2.59,4.79,0.63,5.48
7.200,1.78,5.14,-0.10,5.44
7.210,0.38,5.15,-0.13,5.16
7.220,-0.70,4.92,-0.21,4.98
7.230,-1.43,4.54,-0.56,4.79
7.240,-1.98,4.32,-1.15,4.89
7.250,-2.34,3.86,-1.93,4.90
7.260,-2.52,2.83,-2.77,4.70
7.270,-2.77,1.64,-3.52,4.77
7.280,-2.82,0.74,-3.64,4.67
7.291,-2.56,0.21,-3.44,4.29
7.300,-2.18,0.09,-2.86,3.60
7.311,-1.87,0.39,-2.02,2.78
7.321,-1.54,1.02,-1.09,2.14
7.331,-1.00,1.43,-0.37,1.78
7.341,-0.48,1.40,-0.20,1.50
7.351,0.00,0.99,0.06,0.99
7.361,0.37,0.19,0.19,0.46
7.371,0.37,-0.32,0.35,0.60
7.381,0.28,-0.51,0.51,0.77
7.391,0.47,-0.44,0.59,0.87
7.401,1.23,-0.23,0.49,1.34
7.411,1.23,-0.60,0.09,1.37
7.421,0.55,-1.34,-0.28,1.48
7.431,0.11,-2.06,-0.60,2.15
7.441,-0.05,-2.45,-0.86,2.60
7.451,-0.03,-2.67,-0.96,2.84
7.461,-0.04,-2.80,-0.76,2.90
7.471,-0.04,-2.85,-0.59,2.91
7.481,0.04,-2.88,-0.67,2.96
7.491,-0.14,-2.89,-0.77,2.99
7.501,-0.48,-2.83,-0.71,2.96
7.512,-0.64,-2.60,-0.57,2.74
7.522,-0.67,-2.50,-0.29,2.61
7.532,-0.53,-2.41,-0.09,2.47
7.542,-0.25,-2.35,-0.08,2.37
7.552,0.02,-2.27,-0.20,2.28
7.562,0.19,-2.09,-0.29,2.12
7.572,0.23,-1.86,-0.13,1.88
7.582,0.17,-1.76,-0.02,1.77
7.592,-0.00,-1.76,-0.03,1.76
7.602,-0.20,-1.85,-0.11,1.86
7.612,-0.41,-1.91,-0.12,1.95
7.622,-0.53,-1.97,0.09,2.04
7.632,-0.50,-2.13,0.25,2.20
7.642,-0.28,-2.24,0.36,2.29
7.652,-0.02,-2.30,0.46,2.34
7.662,0.11,-2.24,0.58,2.32
7.673,0.26,-2.08,0.49,2.16
7.682,0.49,-1.84,0.43,1.95
7.693,0.58,-1.65,0.41,1.80
7.703,0.61,-1.46,0.31,1.62
7.713,0.53,-1.24,0.34,1.39
7.723,0.39,-1.03,0.57,1.24
7.733,0.40,-0.84,1.03,1.39
7.743,0.48,-0.67,1.34,1.57
7.753,0.72,-0.67,1.49,1.79
7.763,0.96,-0.89,1.60,2.07
7.773,1.22,-1.07,1.50,2.21
7.783,1.43,-1.18,1.21,2.21
7.793,1.54,-1.10,0.98,2.13
7.803,1.47,-0.82,1.18,2.06
7.813,1.35,-0.47,1.64,2.18
7.823,1.35,-0.10,2.00,2.41
7.833,1.59,0.25,2.13,2.67
7.843,2.00,0.65,2.14,3.00
7.853,2.34,1.07,2.11,3.33
7.864,2.49,1.60,2.07,3.62
7.874,2.42,2.09,1.85,3.69
7.884,2.02,2.47,1.78,3.65
7.894,1.26,2.94,1.89,3.72
7.904,0.28,3.46,1.90,3.96
7.914,-0.62,3.84,2.47,4.61
7.924,-1.01,4.67,2.61,5.44
7.934,-0.73,5.89,2.08,6.29
7.944,-0.14,7.08,1.88,7.33
7.954,0.51,7.26,2.11,7.58
7.964,1.19,6.72,2.26,7.19
7.974,1.55,5.89,2.15,6.46
7.984,1.63,4.80,2.09,5.48
7.994,1.07,3.65,1.41,4.05
8.004,-0.03,2.71,0.54,2.76
8.015,-0.93,1.53,-0.24,1.80
8.024,-1.20,0.17,-0.71,1.40
8.035,-1.47,-0.97,-1.28,2.18
8.045,-1.93,-1.68,-2.01,3.26
8.055,-2.50,-1.78,-2.57,4.00
8.065,-3.21,-1.50,-2.75,4.48
8.075,-3.96,-1.01,-2.52,4.80
8.085,-4.39,-0.46,-2.04,4.86
8.095,-4.26,0.02,-1.58,4.55
8.105,-3.60,0.41,-1.34,3.86
8.115,-2.48,0.40,-1.23,2.80
8.125,-1.17,0.03,-1.19,1.67
8.135,-0.09,-0.47,-1.02,1.13
8.145,0.55,-0.94,-0.84,1.38
8.155,0.81,-1.23,-0.76,1.66
8.165,0.83,-1.44,-0.58,1.76
8.175,0.65,-1.75,-0.42,1.91
8.185,0.31,-1.97,-0.36,2.02
8.196,0.15,-2.11,-0.38,2.15
8.206,0.21,-2.16,-0.43,2.21
8.216,0.32,-2.08,-0.46,2.15
8.226,0.39,-1.91,-0.46,2.00
8.236,0.47,-1.75,-0.49,1.88
8.246,0.50,-1.60,-0.50,1.75
8.256,0.47,-1.48,-0.47,1.63
8.266,0.43,-1.48,-0.54,1.63
8.276,0.37,-1.69,-0.51,1.81
8.286,0.39,-2.02,-0.51,2.12
8.296,0.46,-2.15,-0.54,2.26
8.306,0.51,-2.27,-0.62,2.41
8.316,0.60,-2.50,-0.55,2.63
8.326,0.66,-2.54,-0.49,2.67
8.336,0.61,-2.43,-0.61,2.57
8.346,0.33,-2.37,-0.78,2.52
8.356,0.02,-2.48,-0.71,2.58
8.366,-0.01,-2.65,-0.57,2.71
8.376,-0.07,-2.49,-0.31,2.51
8.386,0.11,-2.22,0.01,2.23
8.397,0.40,-1.84,0.01,1.88
8.407,0.66,-1.26,-0.22,1.44
8.417,0.82,-0.79,-0.57,1.27
8.427,0.70,-0.44,-0.70,1.08
8.437,0.49,-0.26,-0.62,0.84
8.447,0.29,-0.27,-0.37,0.54
8.457,0.06,-0.47,0.10,0.48
8.467,-0.01,-0.74,0.50,0.90
8.477,0.18,-0.98,0.81,1.29
8.487,0.51,-0.99,0.98,1.48
8.497,0.81,-0.75,0.84,1.39
8.507,1.00,-0.55,0.61,1.30
8.517,0.96,-0.52,0.40,1.17
8.527,0.76,-0.73,0.33,1.11
8.537,0.53,-1.00,0.54,1.26
8.547,0.47,-1.25,0.94,1.64
8.557,0.67,-1.44,1.33,2.07
8.568,1.08,-1.44,1.45,2.31
8.577,1.48,-1.21,1.18,2.25
8.588,1.77,-0.77,0.91,2.13
8.598,1.82,-0.21,0.76,1.98
8.608,1.62,0.14,0.45,1.69
8.618,1.31,0.20,0.26,1.35
8.628,0.97,0.27,0.32,1.06
8.638,0.68,0.29,0.43,0.86
8.648,0.46,0.23,0.47,0.69
8.658,0.28,0.20,0.49,0.59
8.668,0.15,0.18,0.82,0.85
8.678,0.08,0.11,1.24,1.24
8.688,0.09,0.10,1.60,1.61
8.698,0.14,0.10,1.71,1.72
8.708,0.28,0.22,1.66,1.70
8.718,0.49,0.51,1.72,1.86
8.728,0.79,0.81,1.87,2.18
8.738,1.13,0.96,2.16,2.62
8.748,1.43,1.04,2.41,2.99
8.759,1.61,1.17,2.55,3.23
8.769,1.61,1.45,2.64,3.42
8.779,1.67,1.85,2.57,3.58
8.789,2.04,2.22,2.39,3.85
8.799,2.36,2.52,2.15,4.06
8.809,2.22,2.70,1.50,3.81
8.819,1.70,2.79,0.42,3.29
8.829,0.90,2.98,-0.61,3.17
8.839,-0.09,3.47,-1.55,3.80
8.849,-1.13,3.89,-2.50,4.76
8.859,-2.05,3.59,-3.18,5.22
8.869,-2.91,2.76,-3.50,5.32
8.879,-3.46,1.67,-3.64,5.29
8.889,-3.58,0.37,-3.55,5.05
8.899,-3.34,-0.83,-3.25,4.74
8.909,-2.65,-1.80,-2.91,4.33
8.920,-1.82,-2.48,-2.47,3.95
8.930,-0.81,-2.68,-2.11,3.50
8.940,0.13,-2.28,-2.02,3.04
8.950,0.65,-1.31,-1.99,2.47
8.960,1.04,-0.07,-1.72,2.02
8.970,1.45,0.75,-1.57,2.26
8.980,1.32,1.05,-1.49,2.25
8.990,0.50,1.22,-1.13,1.74
9.000,-0.40,1.47,-0.73,1.69
9.010,-1.02,1.56,-0.65,1.97
9.020,-1.43,1.39,-0.75,2.13
9.030,-1.61,1.12,-0.77,2.10
9.040,-1.45,0.86,-0.67,1.82
9.050,-0.94,0.66,-0.82,1.42
9.060,-0.31,0.57,-1.09,1.28
9.070,-0.26,0.14,-1.27,1.30
9.080,-0.26,-0.38,-1.10,1.19
9.090,-0.30,-1.12,-0.84,1.44
9.100,-0.45,-1.80,-0.47,1.91
9.110,-0.45,-2.18,-0.05,2.23
9.121,-0.46,-2.30,0.04,2.35
9.131,-0.40,-2.22,-0.03,2.26
9.141,-0.29,-2.06,0.02,2.08
9.151,-0.24,-1.89,0.17,1.92
9.161,-0.27,-1.67,0.31,1.72
9.171,-0.26,-1.42,0.35,1.49
9.181,-0.27,-1.33,0.39,1.42
9.191,-0.40,-1.33,0.37,1.44
9.201,-0.45,-1.20,0.15,1.29
9.211,-0.37,-1.10,0.02,1.16
9.221,-0.36,-0.99,-0.01,1.06
9.231,-0.36,-1.05,0.02,1.11
9.241,-0.44,-1.16,-0.03,1.24
9.251,-0.45,-1.14,-0.04,1.23
9.261,-0.30,-1.31,0.15,1.35
9.271,-0.02,-1.47,0.20,1.48
9.281,0.28,-1.47,0.13,1.50
9.292,0.40,-1.31,0.28,1.39
9.302,0.30,-0.97,0.68,1.22
9.312,0.17,-0.56,1.21,1.34
9.322,0.19,-0.32,1.52,1.56
9.332,0.32,-0.35,1.63,1.70
9.342,0.48,-0.60,1.51,1.69
9.352,0.82,-0.97,1.30,1.82
9.362,1.20,-1.17,1.22,2.07
9.372,1.58,-1.14,1.06,2.21
9.382,1.74,-0.85,0.97,2.16
9.392,1.62,-0.47,1.02,1.97
9.402,1.35,-0.23,1.07,1.74
9.412,1.25,-0.16,1.03,1.62
9.422,1.27,-0.09,1.14,1.71
9.432,1.25,0.13,1.37,1.86
9.442,1.14,0.52,1.70,2.11
9.452,1.13,0.94,2.15,2.61
9.463,1.25,1.28,2.63,3.18
9.473,1.52,1.48,3.06,3.72
9.483,1.99,1.52,3.22,4.08
9.493,2.55,1.62,3.12,4.35
9.503,2.92,1.86,2.85,4.49
9.513,2.75,2.20,2.21,4.16
9.523,1.76,2.55,1.68,3.52
9.533,0.32,3.23,1.26,3.48
9.543,-0.91,4.52,1.06,4.73
9.553,-1.50,6.47,0.85,6.70
9.563,-1.46,8.46,0.93,8.64
9.573,-1.05,8.32,0.68,8.42
9.583,-0.33,5.93,0.25,5.94
9.593,0.49,3.60,0.19,3.64
9.603,1.06,2.22,-0.16,2.47
9.613,0.78,1.29,-0.86,1.74
9.623,0.27,0.39,-1.02,1.13
9.634,-0.19,-0.70,-1.17,1.38
9.644,-0.71,-1.76,-1.41,2.36
9.654,-1.52,-2.26,-1.80,3.26
9.664,-2.49,-1.91,-2.15,3.80
9.674,-3.54,-1.07,-2.46,4.44
9.684,-4.50,0.01,-2.64,5.22
9.694,-5.04,0.87,-2.64,5.76
9.704,-5.09,1.35,-2.52,5.84
9.714,-4.74,1.43,-2.33,5.47
9.724,-4.19,1.17,-2.36,4.94
9.734,-3.39,0.73,-2.37,4.20
9.744,-2.60,0.26,-2.27,3.46
9.754,-2.02,-0.14,-1.89,2.77
9.764,-1.54,-0.41,-1.49,2.18
9.774,-1.09,-0.44,-1.07,1.59
9.784,-0.54,-0.31,-0.71,0.94
9.794,0.06,-0.11,-0.57,0.58
9.804,0.64,0.09,-0.68,0.94
9.814,1.09,0.15,-0.87,1.40
9.825,1.34,0.04,-1.17,1.78
9.835,1.37,-0.24,-1.49,2.04
9.845,1.19,-0.61,-1.69,2.15
9.855,0.78,-1.09,-1.71,2.17
9.865,0.30,-1.69,-1.66,2.39
9.875,-0.11,-2.31,-1.54,2.78
9.885,-0.44,-2.78,-1.29,3.09
9.895,-0.58,-3.07,-0.91,3.26
9.905,-0.58,-3.18,-0.71,3.31
9.915,-0.51,-3.19,-0.62,3.29
9.925,-0.18,-3.12,-0.55,3.17
9.935,0.08,-2.86,-0.60,2.93
9.945,0.24,-2.52,-0.63,2.61
9.955,0.31,-2.23,-0.74,2.37
9.965,0.58,-2.02,-0.81,2.25
9.975,0.63,-1.58,-0.82,1.89
9.985,0.54,-1.34,-1.04,1.78
9.995,0.47,-1.27,-1.07,1.73
10.005,0.51,-1.18,-0.91,1.58
10.016,0.54,-1.16,-0.69,1.45
10.026,0.38,-1.29,-0.58,1.46
10.036,0.23,-1.42,-0.55,1.54
10.046,0.20,-1.41,-0.57,1.53
10.056,0.22,-1.12,-0.51,1.25
10.066,0.32,-0.74,-0.25,0.84
10.076,0.30,-0.30,-0.12,0.44
10.086,0.12,-0.05,-0.05,0.14
10.096,-0.10,-0.09,0.18,0.23
10.106,-0.28,-0.22,0.42,0.55
10.116,-0.26,-0.45,0.62,0.81
10.128,0.07,-0.59,0.71,0.92
10.136,0.54,-0.54,0.70,1.03
10.146,0.84,-0.56,0.67,1.21
10.156,0.83,-0.61,0.61,1.20
10.166,0.66,-0.64,0.53,1.06
10.176,0.59,-0.69,0.56,1.07
10.187,0.56,-0.70,0.66,1.11
10.197,0.49,-0.44,0.75,1.00
10.207,0.51,-0.02,0.73,0.89
10.217,0.52,0.38,0.77,1.01
10.227,0.58,0.76,0.92,1.33
10.237,0.77,1.19,1.16,1.83
10.247,0.95,1.55,1.50,2.36
10.257,1.04,1.84,1.86,2.82
10.267,1.31,2.38,1.64,3.18
10.277,1.76,2.97,1.13,3.64
10.287,1.95,3.35,0.78,3.96
10.297,1.34,3.98,0.33,4.21
10.307,0.12,5.09,-0.18,5.09
10.317,-1.15,6.02,-0.49,6.15
10.327,-2.03,6.27,-0.54,6.61
10.337,-2.06,5.93,-1.13,6.38
10.348,-1.61,4.97,-1.92,5.57
10.357,-1.31,3.60,-2.63,4.65
10.368,-1.23,2.35,-3.23,4.18
10.378,-1.20,1.29,-3.61,4.02
10.388,-1.13,0.27,-3.74,3.91
10.398,-1.07,-0.40,-3.39,3.58
10.408,-1.10,-0.47,-2.78,3.03
10.418,-1.14,-0.08,-2.11,2.40
10.428,-1.11,0.53,-1.66,2.07
10.438,-1.01,0.95,-1.45,2.01
10.448,-1.06,1.14,-1.05,1.88
10.458,-1.21,1.16,-0.45,1.74
10.468,-1.36,0.98,-0.11,1.68
10.478,-1.35,0.70,-0.21,1.54
10.488,-1.14,0.22,-0.26,1.19
10.498,-0.86,-0.26,-0.08,0.90
10.508,-0.50,-0.37,-0.11,0.63
10.518,0.08,-0.61,-0.46,0.77
10.528,0.30,-1.34,-0.78,1.58
10.539,0.10,-1.98,-1.00,2.22
10.549,0.05,-2.38,-1.18,2.66
10.559,-0.02,-2.70,-1.26,2.98
10.569,-0.15,-2.84,-1.18,3.08
10.579,-0.20,-2.95,-0.97,3.11
10.589,-0.24,-3.09,-0.78,3.19
10.599,-0.57,-3.19,-0.65,3.31
10.609,-0.96,-3.29,-0.47,3.46
10.619,-1.14,-3.22,-0.37,3.44
10.629,-1.05,-3.23,-0.39,3.42
10.639,-0.76,-3.26,-0.43,3.38
10.649,-0.51,-3.26,-0.35,3.32
10.659,-0.25,-3.08,-0.26,3.10
10.669,-0.01,-2.87,-0.27,2.89
10.679,0.13,-2.57,-0.25,2.59
10.689,0.20,-2.22,-0.16,2.24
10.699,0.20,-1.89,-0.06,1.91
10.709,0.26,-1.67,-0.04,1.69
10.720,0.23,-1.42,0.05,1.44
10.730,0.14,-1.18,0.17,1.20
10.740,-0.07,-0.97,0.34,1.03
10.750,-0.39,-0.70,0.46,0.92
10.760,-0.51,-0.38,0.39,0.75
10.771,-0.40,-0.15,0.33,0.54
10.780,-0.13,-0.07,0.47,0.49
10.790,0.21,-0.13,0.68,0.72
10.800,0.53,-0.12,0.81,0.97
10.810,0.92,-0.11,0.86,1.26
10.820,1.21,-0.15,0.88,1.51
10.830,1.32,-0.08,0.83,1.56
10.840,1.24,-0.04,0.89,1.52
10.850,1.04,0.07,0.84,1.34
10.860,0.90,0.14,0.84,1.25
10.870,0.80,0.09,1.01,1.29
10.880,0.77,-0.05,1.17,1.40
10.890,0.81,-0.20,1.44,1.66
10.900,0.90,-0.34,1.67,1.93
10.911,1.05,-0.36,1.66,1.99
10.921,1.11,-0.25,1.44,1.83
10.931,1.01,-0.07,1.23,1.60
10.941,0.82,0.21,1.08,1.37
10.951,0.58,0.51,1.08,1.33
10.961,0.40,0.80,1.18,1.49
10.971,0.29,1.05,1.16,1.60
10.981,0.17,1.04,1.30,1.67
10.991,0.02,1.11,1.34,1.74
11.001,-0.00,1.88,1.54,2.43
11.011,-0.01,3.63,1.25,3.84
11.021,-0.43,5.15,0.42,5.18
11.031,-0.76,5.74,0.46,5.81
11.041,-1.09,5.67,0.53,5.80
11.051,-1.48,5.51,0.53,5.73
11.061,-1.38,5.70,0.38,5.87
11.072,-1.44,5.54,0.57,5.75
11.082,-1.32,4.92,0.64,5.14
11.092,-0.88,3.75,0.50,3.88
11.102,-0.34,2.52,-0.06,2.54
11.112,0.02,1.53,-0.54,1.62
11.122,0.22,0.85,-0.89,1.25
11.132,0.31,0.24,-1.13,1.20
11.142,0.15,-0.34,-1.25,1.30
11.152,-0.17,-0.81,-1.52,1.74
11.162,-0.62,-1.16,-1.84,2.26
11.172,-1.21,-1.32,-2.04,2.71
11.182,-1.78,-1.29,-1.94,2.94
11.192,-2.17,-1.17,-1.59,2.93
11.202,-2.20,-1.17,-1.13,2.74
11.212,-1.96,-1.40,-0.83,2.55
11.222,-1.65,-1.74,-0.70,2.50
11.232,-1.38,-2.06,-0.67,2.56
11.242,-1.03,-2.36,-0.60,2.64
11.252,-0.73,-2.66,-0.54,2.81
11.263,-0.46,-2.98,-0.58,3.07
11.272,-0.19,-3.22,-0.82,3.33
11.283,0.18,-3.34,-1.11,3.53
11.293,0.55,-3.49,-1.26,3.75
11.304,0.66,-3.49,-1.14,3.74
11.313,0.70,-3.66,-0.98,3.85
11.323,0.54,-3.81,-0.87,3.95
11.333,0.39,-3.74,-0.82,3.84
11.343,0.47,-3.61,-0.83,3.73
11.353,0.55,-3.16,-0.70,3.29
11.363,0.57,-2.60,-0.33,2.68
11.373,0.48,-2.09,-0.17,2.15
11.383,0.59,-1.62,-0.13,1.73
11.393,0.84,-1.15,-0.27,1.45
11.403,1.04,-0.75,-0.22,1.30
11.413,1.24,-0.39,0.05,1.30
11.423,1.48,-0.07,0.19,1.49
11.434,1.66,0.26,0.12,1.68
11.444,1.76,0.58,-0.08,1.85
11.453,1.68,0.72,-0.15,1.83
11.464,1.31,0.70,-0.11,1.49
11.474,1.05,0.59,-0.01,1.20
11.484,0.95,0.35,0.02,1.01
11.494,0.75,0.01,0.25,0.79
11.504,0.63,-0.41,0.62,0.97
11.514,0.55,-0.72,0.94,1.31
11.524,0.45,-0.87,1.22,1.56
11.534,0.39,-0.84,1.20,1.51
11.544,0.42,-0.76,0.96,1.29
11.554,0.39,-0.60,0.72,1.01
11.564,0.38,-0.37,0.67,0.85
11.574,0.53,-0.14,0.64,0.84
11.584,0.60,0.01,0.57,0.83
11.594,0.56,-0.01,0.49,0.74
11.604,0.57,-0.21,0.52,0.80
11.615,0.73,-0.45,0.72,1.12
11.625,0.91,-0.55,0.97,1.44
11.635,1.05,-0.31,1.01,1.49
11.645,1.15,0.25,0.66,1.35
11.655,1.04,0.76,0.27,1.31
11.665,0.83,0.99,0.07,1.29
11.675,0.71,0.98,0.05,1.21
11.685,0.63,0.82,0.28,1.07
11.695,0.53,0.89,0.63,1.21
11.705,0.53,1.27,0.98,1.69
11.715,0.65,1.57,1.38,2.19
11.725,1.01,1.82,1.67,2.67
11.735,1.41,2.20,1.57,3.05
11.745,1.48,2.62,1.05,3.19
11.755,1.21,3.34,0.33,3.56
11.766,0.71,4.08,-0.05,4.14
11.775,0.30,4.58,0.12,4.59
11.785,0.29,5.09,0.17,5.10
11.795,0.14,5.37,0.04,5.37
11.806,-0.08,4.90,-0.47,4.92
11.816,-0.23,4.00,-1.30,4.21
11.826,-0.48,3.18,-2.14,3.87
11.836,-1.11,2.45,-2.85,3.92
11.846,-1.85,1.68,-3.36,4.19
11.856,-2.12,0.79,-3.64,4.28
11.866,-2.08,-0.02,-3.35,3.94
11.876,-1.81,-0.40,-2.55,3.16
11.886,-1.55,-0.33,-1.88,2.46
11.896,-1.33,0.08,-1.42,1.95
11.906,-1.09,0.56,-1.02,1.60
11.916,-1.04,0.80,-0.82,1.54
11.926,-1.20,0.75,-0.47,1.49
11.936,-1.39,0.73,0.25,1.59
11.946,-1.17,0.63,0.64,1.48
11.956,-0.73,0.24,0.43,0.88
11.967,-0.32,0.10,0.11,0.35
11.977,0.44,0.13,-0.15,0.48
11.987,0.75,-0.09,-0.22,0.78
11.997,0.41,-0.52,-0.27,0.71
12.007,0.14,-1.21,-0.45,1.30
12.017,-0.02,-1.88,-0.57,1.96
12.027,-0.03,-2.37,-0.59,2.44
12.037,-0.02,-2.72,-0.53,2.77
12.047,0.10,-2.96,-0.41,2.99
12.057,-0.01,-2.97,-0.24,2.98
12.067,-0.29,-2.72,-0.16,2.74
12.077,-0.50,-2.46,-0.27,2.52
12.087,-0.47,-2.19,-0.57,2.31
12.097,-0.29,-2.15,-0.76,2.30
12.107,-0.13,-2.41,-0.86,2.56
12.117,-0.06,-2.58,-0.82,2.70
12.127,0.04,-2.64,-0.55,2.70
12.137,0.05,-2.68,-0.30,2.70
12.147,-0.08,-2.66,-0.21,2.67
12.158,-0.29,-2.58,-0.14,2.60
12.168,-0.47,-2.40,0.04,2.44
12.178,-0.56,-2.13,0.19,2.21
12.188,-0.52,-1.83,0.25,1.92
12.198,-0.44,-1.69,0.19,1.75
12.208,-0.33,-1.61,0.03,1.65
12.218,-0.18,-1.50,-0.07,1.51
12.228,-0.03,-1.44,-0.05,1.44
12.238,-0.01,-1.40,0.10,1.40
12.248,0.03,-1.21,0.36,1.27
12.258,0.14,-0.88,0.61,1.07
12.268,0.37,-0.52,0.76,0.99
12.278,0.64,-0.30,0.83,1.09
12.288,0.73,-0.15,0.89,1.16
12.298,0.62,-0.06,1.06,1.23
12.308,0.43,0.00,1.21,1.29
12.318,0.25,0.06,1.23,1.26
12.329,0.22,0.12,1.11,1.14
12.338,0.31,0.18,0.94,1.00
12.349,0.39,0.21,0.96,1.06
12.359,0.41,0.26,1.28,1.37
12.369,0.51,0.43,1.63,1.76
12.379,0.76,0.59,1.81,2.06
12.389,1.10,0.73,1.94,2.35
12.399,1.45,0.93,1.88,2.55
12.409,1.68,1.10,1.56,2.55
12.419,1.59,1.29,1.13,2.34
12.429,0.95,1.35,0.83,1.84
12.439,0.00,1.16,1.15,1.64
12.449,-0.60,1.85,1.48,2.45
12.459,-1.25,3.94,1.38,4.36
12.469,-2.13,5.86,1.23,6.35
12.479,-2.61,6.03,2.06,6.89
12.489,-1.96,5.52,2.58,6.40
12.499,-1.08,5.08,1.96,5.55
12.510,-0.23,4.53,1.15,4.68
12.520,0.66,3.73,0.30,3.80
12.530,0.85,2.77,-0.33,2.92
12.540,0.59,1.99,-0.75,2.21
12.550,0.35,1.44,-1.10,1.85
12.560,0.15,0.91,-1.50,1.76
12.570,-0.20,0.25,-1.82,1.84
12.580,-0.72,-0.41,-1.93,2.09
12.590,-1.19,-0.86,-1.90,2.40
12.600,-1.50,-1.03,-1.79,2.55
12.610,-1.81,-0.93,-1.54,2.56
12.620,-2.08,-0.67,-1.32,2.55
12.631,-2.09,-0.41,-1.11,2.40
12.640,-1.73,-0.21,-0.88,1.95
12.650,-1.20,-0.16,-0.77,1.43
12.660,-0.69,-0.39,-0.66,1.03
12.670,-0.24,-0.81,-0.62,1.05
12.680,0.07,-1.26,-0.71,1.45
12.690,0.13,-1.65,-0.77,1.82
12.701,0.16,-1.99,-0.70,2.11
12.711,0.27,-2.23,-0.58,2.32
12.721,0.44,-2.52,-0.66,2.64
12.731,0.58,-2.82,-0.86,3.00
12.741,0.74,-3.09,-1.03,3.34
12.751,0.87,-3.36,-1.16,3.66
12.761,0.89,-3.58,-1.22,3.89
12.771,0.71,-3.63,-1.04,3.84
12.781,0.61,-3.72,-0.83,3.86
12.791,0.47,-3.81,-0.69,3.90
12.801,0.44,-3.63,-0.44,3.69
12.811,0.55,-3.31,-0.31,3.37
12.821,0.68,-2.70,-0.34,2.80
12.831,0.70,-2.00,-0.55,2.19
12.841,0.53,-1.36,-0.71,1.63
12.851,0.35,-0.83,-0.67,1.12
12.861,0.31,-0.33,-0.57,0.73
12.872,0.29,0.01,-0.46,0.55
12.882,0.18,0.20,-0.29,0.39
12.892,0.13,0.23,-0.20,0.33
12.902,0.13,0.12,0.03,0.18
12.912,0.19,-0.00,0.25,0.31
12.922,0.35,-0.19,0.41,0.57
12.932,0.51,-0.28,0.42,0.71
12.942,0.69,-0.26,0.40,0.84
12.952,0.73,-0.26,0.43,0.88
12.962,0.61,-0.23,0.41,0.77
12.972,0.43,-0.26,0.44,0.67
12.982,0.30,-0.38,0.57,0.74
12.992,0.31,-0.38,0.66,0.82
13.002,0.47,-0.27,0.73,0.91
13.012,0.59,-0.08,0.70,0.92
13.022,0.57,-0.01,0.52,0.77
13.032,0.50,-0.12,0.39,0.64
13.042,0.44,-0.27,0.37,0.63
13.053,0.50,-0.38,0.48,0.79
13.063,0.69,-0.30,0.57,0.94
13.073,0.83,-0.10,0.62,1.04
13.083,0.81,-0.01,0.67,1.05
13.093,0.85,-0.19,0.80,1.18
13.103,1.01,-0.30,0.92,1.40
13.113,1.20,-0.26,1.11,1.66
13.123,1.33,-0.11,1.33,1.88
13.133,1.40,0.18,1.50,2.06
13.143,1.36,0.65,1.47,2.10
13.153,1.43,1.16,1.36,2.30
13.163,1.69,1.84,1.45,2.88
13.173,1.87,2.72,1.46,3.61
13.183,1.79,3.60,1.00,4.14
13.193,1.40,4.40,0.52,4.64
13.203,1.06,5.15,0.42,5.27
13.213,0.99,5.55,0.60,5.67
13.224,0.97,5.47,0.68,5.60
13.234,0.73,5.32,0.43,5.39
13.244,0.26,5.25,-0.34,5.26
13.254,-0.16,4.80,-1.31,4.98
13.264,-0.74,4.06,-2.14,4.64
13.274,-1.57,3.17,-2.70,4.45
13.284,-2.38,2.17,-2.98,4.39
13.294,-2.82,1.10,-3.12,4.35
13.304,-2.75,0.12,-3.00,4.07
13.314,-2.40,-0.71,-2.50,3.54
13.324,-2.03,-1.15,-1.79,2.94
13.334,-1.59,-1.11,-1.11,2.23
13.344,-1.12,-0.42,-0.86,1.48
13.354,-0.69,0.47,-1.01,1.31
13.364,-0.38,0.90,-0.88,1.32
13.374,-0.22,0.87,-0.37,0.97
13.384,-0.12,0.50,0.10,0.53
13.394,-0.07,0.12,0.39,0.41
13.404,-0.05,-0.04,0.46,0.47
13.415,-0.10,-0.10,0.24,0.27
13.425,-0.03,-0.14,-0.04,0.15
13.435,0.30,-0.43,-0.25,0.58
13.445,0.13,-0.88,-0.48,1.01
13.455,-0.27,-1.26,-0.50,1.38
13.465,-0.49,-1.60,-0.55,1.76
13.475,-0.48,-1.94,-0.62,2.09
13.485,-0.38,-2.23,-0.56,2.33
13.495,-0.05,-2.55,-0.44,2.59
13.505,0.22,-3.02,-0.33,3.05
13.515,0.22,-3.34,-0.30,3.36
13.525,-0.03,-3.43,-0.25,3.44
13.535,-0.18,-3.35,-0.27,3.37
13.545,-0.00,-3.15,-0.35,3.17
13.555,0.23,-2.96,-0.37,3.00
13.565,0.33,-2.81,-0.28,2.84
13.575,0.17,-2.84,-0.26,2.86
13.586,-0.03,-2.78,-0.23,2.79
13.596,-0.26,-2.56,-0.13,2.58
13.606,-0.38,-2.32,-0.08,2.35
13.616,-0.36,-2.09,-0.07,2.12
13.626,-0.36,-1.90,0.01,1.94
13.636,-0.47,-1.59,0.11,1.66
13.646,-0.32,-1.23,0.31,1.31
13.656,-0.18,-1.07,0.36,1.15
13.666,-0.18,-0.99,0.21,1.03
13.676,-0.11,-0.87,0.22,0.90
13.686,0.02,-0.69,0.34,0.77
13.696,0.29,-0.50,0.46,0.74
13.706,0.54,-0.37,0.61,0.90
13.716,0.64,-0.28,0.77,1.04
13.726,0.57,-0.13,0.83,1.02
13.736,0.43,0.04,0.84,0.94
13.746,0.35,0.18,0.93,1.01
13.756,0.38,0.23,1.09,1.18
13.767,0.39,0.41,1.16,1.29
13.777,0.42,0.71,1.11,1.38
13.787,0.52,0.84,1.11,1.49
13.796,0.61,0.73,1.19,1.52
13.807,0.63,0.53,1.37,1.60
13.817,0.64,0.42,1.56,1.74
13.827,0.66,0.45,1.70,1.88
13.837,0.78,0.54,1.73,1.97
13.847,0.83,0.71,1.51,1.86
13.857,0.60,0.82,1.38,1.72
13.867,0.22,0.69,1.73,1.87
13.877,-0.08,1.00,1.85,2.10
13.887,-0.34,2.24,1.67,2.82
13.897,-0.86,4.10,1.31,4.39
13.907,-1.62,5.46,1.29,5.84
13.917,-2.18,5.32,1.77,6.02
13.927,-1.72,4.99,2.08,5.67
13.938,-1.13,5.24,1.47,5.56
13.948,-0.68,5.32,0.89,5.44
13.958,-0.28,4.42,0.63,4.47
13.968,-0.05,2.89,-0.12,2.90
13.978,0.15,1.36,-0.90,1.64
13.988,0.46,0.48,-1.48,1.63
13.998,0.57,0.08,-1.58,1.68
14.008,0.42,-0.35,-1.47,1.57
14.018,0.10,-0.87,-1.44,1.69
14.028,-0.30,-1.26,-1.40,1.90
14.038,-0.59,-1.42,-1.31,2.02
14.048,-0.89,-1.31,-1.29,2.04
14.058,-1.20,-1.12,-1.16,2.01
14.068,-1.36,-0.97,-0.90,1.89
14.078,-1.40,-0.81,-0.75,1.78
14.088,-1.18,-0.66,-0.73,1.53
14.099,-0.85,-0.60,-0.74,1.28
14.108,-0.47,-0.70,-0.68,1.09
14.118,-0.05,-1.00,-0.56,1.15
14.129,0.20,-1.36,-0.53,1.47
14.139,0.34,-1.74,-0.59,1.87
14.149,0.41,-2.10,-0.66,2.24
14.159,0.56,-2.35,-0.76,2.53
14.169,0.81,-2.57,-0.90,2.84
14.179,0.92,-2.85,-0.98,3.15
14.189,1.07,-3.23,-1.02,3.55
14.199,1.16,-3.52,-0.86,3.81
14.209,0.88,-3.45,-0.60,3.61
14.219,0.43,-3.33,-0.57,3.41
14.229,0.36,-3.18,-0.53,3.24
14.239,0.33,-2.86,-0.32,2.90
14.249,0.45,-2.52,-0.19,2.56
14.259,0.53,-2.17,-0.21,2.24
14.269,0.46,-1.73,-0.40,1.84
14.279,0.52,-1.12,-0.52,1.34
14.289,0.60,-0.60,-0.53,1.00
14.300,0.50,-0.29,-0.58,0.82
14.309,0.33,-0.19,-0.73,0.83
14.320,0.34,-0.18,-0.64,0.75
14.330,0.51,-0.16,-0.35,0.64
14.340,0.78,-0.10,-0.07,0.79
14.350,0.92,-0.00,0.07,0.92
14.360,0.90,-0.08,0.01,0.90
14.370,0.76,-0.16,0.04,0.78
14.380,0.61,-0.12,0.28,0.68
14.390,0.58,-0.07,0.53,0.79
14.400,0.60,-0.01,0.59,0.84
14.410,0.62,0.02,0.53,0.82
14.420,0.64,-0.04,0.58,0.87
14.430,0.53,-0.09,0.70,0.88
14.440,0.50,-0.14,0.75,0.91
14.450,0.64,-0.18,0.70,0.97
14.460,0.78,-0.16,0.58,0.99
14.470,0.79,0.00,0.38,0.88
14.480,0.75,0.21,0.28,0.83
14.491,0.69,0.38,0.36,0.87
14.501,0.73,0.54,0.47,1.02
14.511,0.86,0.76,0.61,1.30
14.521,1.01,1.18,0.73,1.72
14.531,1.07,1.65,0.88,2.15
14.541,0.97,2.03,1.19,2.54
14.551,1.03,2.34,1.37,2.90
14.561,1.38,2.54,1.14,3.11
14.571,1.85,2.84,0.93,3.52
14.581,2.11,3.37,0.67,4.03
14.591,1.90,3.96,0.19,4.39
14.601,1.27,4.32,-0.07,4.50
14.611,0.69,4.29,-0.17,4.35
14.621,0.32,3.94,-0.35,3.97
14.631,-0.11,3.46,-0.67,3.53
14.642,-0.56,2.93,-1.24,3.23
14.651,-1.06,2.46,-2.05,3.38
14.662,-1.66,2.00,-2.76,3.79
14.672,-2.25,1.33,-2.95,3.94
14.682,-2.58,0.61,-2.80,3.86
14.692,-2.57,0.13,-2.40,3.51
14.702,-2.28,-0.06,-2.01,3.04
14.712,-1.78,0.01,-1.51,2.34
14.722,-1.23,0.37,-1.05,1.66
14.732,-0.77,0.77,-0.82,1.36
14.742,-0.64,0.76,-0.48,1.10
14.752,-0.58,0.41,-0.16,0.73
14.762,-0.60,0.04,0.18,0.63
14.772,-0.55,-0.24,0.33,0.69
14.782,-0.35,-0.27,0.32,0.55
14.792,-0.34,0.07,0.18,0.39
14.802,-0.19,0.27,-0.11,0.35
14.812,0.18,-0.01,-0.30,0.35
14.822,0.07,-0.29,-0.26,0.40
14.833,-0.26,-0.66,-0.31,0.77
14.843,-0.45,-1.06,-0.42,1.22
14.853,-0.50,-1.39,-0.35,1.51
14.863,-0.46,-1.60,-0.33,1.70
14.873,-0.47,-1.74,-0.29,1.83
14.883,-0.32,-1.96,-0.19,2.00
14.893,-0.23,-2.18,-0.31,2.21
14.903,-0.17,-2.45,-0.41,2.49
14.913,0.06,-2.75,-0.31,2.77
14.923,0.20,-3.00,-0.22,3.02
14.933,0.31,-3.01,-0.14,3.03
14.943,0.47,-2.92,-0.14,2.96
14.953,0.59,-2.85,-0.21,2.92
14.963,0.58,-2.91,-0.21,2.98
14.973,0.47,-3.07,-0.13,3.11
14.983,0.36,-3.10,-0.02,3.12
14.993,0.24,-2.93,0.25,2.95
15.003,0.09,-2.58,0.41,2.62
15.014,-0.12,-2.13,0.38,2.16
15.024,-0.33,-1.74,0.32,1.80
15.034,-0.58,-1.35,0.31,1.50
15.044,-0.72,-1.08,0.33,1.34
15.054,-0.73,-1.00,0.41,1.30
15.064,-0.67,-0.98,0.56,1.31
15.074,-0.50,-0.87,0.62,1.18
15.084,-0.22,-0.65,0.49,0.85
15.094,0.04,-0.50,0.48,0.70
15.104,0.18,-0.32,0.64,0.74
15.114,0.24,-0.12,0.84,0.88
15.124,0.43,0.11,0.85,0.96
15.134,0.71,0.27,1.01,1.27
15.144,1.00,0.33,1.08,1.51
15.154,1.19,0.21,1.09,1.62
15.164,1.24,0.03,0.98,1.59
15.174,1.26,-0.23,0.93,1.58
15.184,1.22,-0.60,1.01,1.70
15.194,1.25,-0.80,1.11,1.85
15.205,1.29,-0.67,1.28,1.93
15.215,1.39,-0.19,1.52,2.07
15.225,1.55,0.36,1.77,2.38
15.235,1.67,0.89,1.81,2.62
15.245,1.62,1.20,1.82,2.71
15.255,1.54,1.19,2.31,3.02
15.265,1.65,1.67,2.12,3.16
15.275,1.60,2.98,1.37,3.65
15.285,0.90,4.43,0.60,4.56
15.295,-0.22,5.54,0.22,5.54
15.305,-1.34,6.48,0.54,6.64
15.315,-2.38,6.81,1.29,7.33
15.325,-2.69,6.72,1.66,7.43
15.335,-2.44,5.76,1.49,6.43
15.345,-1.53,4.32,1.13,4.72
15.355,-0.83,2.66,0.59,2.85
15.366,-0.47,1.36,0.04,1.44
15.375,-0.04,0.55,-0.23,0.60
15.386,0.19,0.18,-0.42,0.49
15.396,0.11,-0.13,-0.64,0.67
15.406,-0.17,-0.49,-1.08,1.20
15.416,-0.61,-0.82,-1.59,1.89
15.426,-1.13,-1.07,-1.98,2.52
15.436,-1.65,-1.12,-2.08,2.89
15.446,-1.99,-0.91,-1.82,2.85
15.456,-2.10,-0.44,-1.32,2.52
15.466,-2.03,0.06,-0.95,2.24
15.476,-1.75,0.33,-0.85,1.97
15.486,-1.30,0.33,-0.93,1.63
15.496,-0.82,-0.07,-1.00,1.29
15.506,-0.50,-0.66,-0.88,1.21
15.516,-0.36,-1.17,-0.62,1.37
15.526,-0.11,-1.69,-0.37,1.73
15.536,0.12,-2.16,-0.19,2.18
15.546,0.40,-2.53,-0.13,2.57
15.556,0.61,-2.85,-0.32,2.93
15.567,0.74,-3.00,-0.59,3.15
15.577,0.85,-3.05,-0.72,3.25
15.587,0.90,-3.13,-0.78,3.35
15.597,0.82,-3.17,-0.83,3.37
15.607,0.80,-3.23,-0.97,3.47
15.617,0.85,-3.21,-1.04,3.48
15.627,0.36,-2.63,-0.87,2.80
15.637,0.02,-2.40,-0.71,2.50
15.647,0.01,-2.15,-0.53,2.22
15.657,0.06,-1.84,-0.49,1.90
15.667,0.13,-1.65,-0.62,1.76
15.677,0.21,-1.49,-0.59,1.62
15.687,0.42,-1.28,-0.54,1.45
15.697,0.56,-1.06,-0.52,1.31
15.707,0.62,-1.04,-0.43,1.28
15.717,0.59,-1.18,-0.35,1.36
15.728,0.55,-1.25,-0.27,1.39
15.738,0.52,-1.21,-0.22,1.33
15.750,0.43,-1.04,-0.22,1.15
15.758,0.29,-0.79,-0.19,0.87
15.768,0.14,-0.60,-0.08,0.62
15.778,0.03,-0.41,0.17,0.45
15.788,0.09,-0.22,0.49,0.55
15.798,0.20,-0.15,0.87,0.91
15.809,0.37,-0.11,1.12,1.19
15.818,0.68,-0.04,1.19,1.38
15.828,0.99,0.11,1.13,1.51
15.838,1.22,0.33,1.00,1.61
15.848,1.22,0.48,0.71,1.49
15.858,1.11,0.45,0.45,1.28
15.868,1.01,0.18,0.34,1.08
15.878,1.03,-0.25,0.34,1.11
15.888,1.11,-0.61,0.47,1.35
15.898,1.22,-0.75,0.43,1.50
15.908,1.23,-0.62,0.21,1.39
15.918,1.17,-0.36,0.18,1.24
15.929,0.97,-0.21,0.39,1.07
15.939,0.82,-0.26,0.65,1.08
15.949,0.82,-0.42,0.87,1.26
15.959,0.84,-0.51,1.00,1.41
15.969,0.81,-0.59,0.93,1.37
15.979,0.76,-0.59,0.78,1.24
15.989,0.71,-0.52,0.78,1.18
15.999,0.71,-0.31,0.87,1.17
16.009,0.81,-0.00,0.93,1.23
16.019,0.91,0.39,0.93,1.36
16.029,0.96,0.83,0.98,1.60
16.039,0.98,1.22,1.26,2.01
16.049,1.16,1.71,1.60,2.61
16.059,1.56,2.35,1.86,3.38
16.069,2.05,3.06,2.09,4.24
16.079,2.42,3.60,2.32,4.91
16.089,2.60,4.14,2.11,5.32
16.100,2.43,4.77,1.52,5.56
16.110,1.54,5.14,1.17,5.49
16.120,0.74,5.15,0.77,5.26
16.130,0.07,5.30,0.15,5.30
16.140,-0.42,5.69,-0.70,5.75
16.150,-0.78,5.59,-1.94,5.97
16.160,-1.45,4.60,-3.20,5.79
16.170,-2.22,3.21,-4.13,5.68
16.180,-2.79,1.96,-4.48,5.63
16.190,-2.97,1.12,-4.12,5.20
16.200,-2.66,0.87,-3.23,4.27
16.210,-2.23,1.05,-2.12,3.25
16.220,-2.03,1.43,-1.43,2.86
16.230,-1.80,1.78,-1.02,2.73
16.240,-1.41,1.84,-0.80,2.46
16.250,-0.90,1.42,-0.66,1.81
16.260,-0.46,0.63,-0.40,0.87
16.271,0.02,-0.41,-0.00,0.41
16.280,0.36,-1.33,0.35,1.42
16.291,0.63,-1.79,0.59,1.98
16.301,0.82,-1.80,0.61,2.07
16.311,0.94,-1.83,0.46,2.11
16.321,0.69,-1.76,0.22,1.91
16.331,0.39,-1.98,-0.28,2.04
16.341,0.12,-2.15,-0.75,2.28
16.351,-0.12,-2.12,-0.96,2.33
16.361,-0.13,-1.90,-0.97,2.14
16.371,-0.58,-1.96,-0.89,2.23
16.381,-1.25,-2.21,-0.63,2.62
16.391,-1.78,-2.50,-0.45,3.10
16.401,-1.82,-2.70,-0.38,3.28
16.411,-1.50,-2.82,-0.42,3.22
16.421,-1.10,-2.78,-0.46,3.03
16.431,-0.49,-2.86,-0.51,2.94
16.441,0.07,-2.95,-0.47,2.99
16.452,0.56,-3.13,-0.40,3.20
16.461,0.66,-3.22,-0.32,3.30
16.472,0.66,-3.13,-0.19,3.21
16.482,0.66,-3.05,-0.09,3.12
16.492,0.70,-3.00,-0.04,3.08
16.502,0.81,-2.93,-0.02,3.04
16.512,0.78,-2.70,0.06,2.81
16.522,0.63,-2.28,0.23,2.37
16.532,0.40,-1.84,0.33,1.91
16.542,0.10,-1.54,0.41,1.59
16.552,-0.18,-1.36,0.52,1.47
16.562,-0.47,-1.22,0.56,1.43
16.572,-0.62,-1.13,0.49,1.38
16.582,-0.53,-1.14,0.44,1.33
16.592,-0.36,-1.20,0.50,1.35
16.602,-0.14,-1.21,0.72,1.42
16.612,0.14,-1.08,1.09,1.54
16.623,0.50,-0.88,1.41,1.73
16.633,0.92,-0.68,1.46,1.86
16.643,1.35,-0.51,1.21,1.89
16.653,1.66,-0.48,1.09,2.04
16.663,1.64,-0.58,1.01,2.02
16.673,1.32,-0.74,1.02,1.83
16.683,1.19,-0.95,0.92,1.78
16.693,1.39,-1.17,0.76,1.96
16.703,1.58,-1.24,0.92,2.21
16.713,1.47,-1.12,1.30,2.27
16.723,1.20,-0.82,1.76,2.28
16.733,0.96,-0.53,2.06,2.33
16.743,0.79,-0.37,2.09,2.27
16.753,0.78,-0.31,2.08,2.24
16.763,0.92,-0.38,1.97,2.21
16.773,1.14,-0.61,1.92,2.31
16.783,1.24,-0.73,1.53,2.10
16.793,1.13,-0.73,1.14,1.77
16.804,0.98,-0.79,0.96,1.58
16.814,0.87,-0.68,1.12,1.57
16.824,0.84,-0.38,1.42,1.70
16.834,0.93,0.08,1.71,1.94
16.844,1.08,0.67,1.90,2.29
16.854,1.04,1.15,1.95,2.50
16.864,0.96,1.44,2.13,2.74
16.874,0.98,1.51,2.42,3.02
16.884,1.22,1.36,2.76,3.31
16.894,1.76,1.05,3.08,3.70
16.904,2.43,0.83,3.14,4.05
16.914,2.68,1.11,2.71,3.96
16.926,2.46,2.48,1.56,3.82
16.934,1.62,4.66,0.60,4.97
16.944,0.33,6.74,0.54,6.77
16.954,-1.29,7.73,0.40,7.84
16.964,-2.39,7.64,-0.28,8.01
16.974,-3.19,6.25,-1.28,7.13
16.985,-3.87,3.57,-1.43,5.45
16.995,-3.41,1.53,-0.73,3.80
17.005,-2.58,0.80,-0.63,2.78
17.015,-2.07,-0.33,-0.51,2.15
17.025,-1.03,-1.45,-0.43,1.83
17.035,0.06,-2.42,-0.61,2.50
17.045,0.81,-3.17,-0.91,3.39
17.055,1.12,-3.43,-1.54,3.92
17.065,0.96,-3.10,-2.49,4.09
17.075,0.29,-2.38,-3.08,3.90
17.085,-0.84,-1.54,-2.97,3.45
17.095,-2.02,-0.79,-2.55,3.35
17.105,-3.13,-0.20,-2.26,3.86
17.115,-3.70,0.36,-1.94,4.20
17.125,-3.58,0.71,-1.60,3.98
17.135,-2.80,0.71,-1.37,3.19
17.145,-1.67,0.38,-1.23,2.11
17.155,-0.70,-0.02,-1.16,1.35
17.166,-0.05,-0.39,-1.00,1.07
17.176,0.38,-0.61,-0.89,1.15
17.186,0.60,-0.84,-0.76,1.28
17.196,0.67,-1.09,-0.66,1.44
17.206,0.64,-1.26,-0.68,1.57
17.216,0.47,-1.32,-0.74,1.58
17.226,0.35,-1.17,-0.83,1.47
17.236,0.20,-0.92,-0.81,1.24
17.246,-0.01,-0.67,-0.75,1.01
17.256,-0.21,-0.58,-0.67,0.91
17.266,-0.29,-0.56,-0.57,0.85
17.276,-0.31,-0.61,-0.56,0.89
17.286,-0.34,-0.71,-0.52,0.94
17.296,-0.28,-0.71,-0.44,0.88
17.306,-0.23,-0.64,-0.35,0.76
17.316,-0.12,-0.55,-0.24,0.62
17.326,0.10,-0.50,-0.27,0.58
17.336,0.32,-0.50,-0.38,0.71
17.346,0.48,-0.51,-0.43,0.83
17.357,0.69,-0.50,-0.36,0.93
17.367,0.85,-0.52,-0.31,1.04
17.377,0.96,-0.55,-0.26,1.14
17.387,1.00,-0.57,-0.25,1.18
17.397,0.96,-0.61,-0.27,1.17
17.407,0.89,-0.59,-0.30,1.11
17.417,0.77,-0.50,-0.20,0.94
17.427,0.52,-0.26,-0.00,0.58
17.437,0.29,-0.05,0.23,0.37
17.447,0.13,-0.00,0.36,0.38
17.457,0.04,-0.23,0.46,0.51
17.467,0.05,-0.59,0.53,0.80
17.477,0.32,-1.00,0.58,1.20
17.487,0.70,-1.24,0.47,1.50
17.497,0.94,-1.31,0.31,1.64
17.507,1.01,-1.30,0.13,1.65
17.517,0.80,-1.33,0.01,1.55
17.527,0.32,-1.39,0.00,1.43
17.537,-0.16,-1.41,0.06,1.42
17.548,-0.42,-1.30,0.15,1.37
17.558,-0.35,-1.15,0.30,1.24
17.568,-0.05,-1.00,0.54,1.14
17.578,0.29,-0.85,0.66,1.11
17.588,0.56,-0.70,0.77,1.18
17.598,0.87,-0.54,0.85,1.33
17.608,1.18,-0.10,0.81,1.43
17.618,1.37,0.45,0.63,1.57
17.628,1.27,0.78,0.59,1.60
17.638,0.89,0.78,0.75,1.40
17.648,0.47,0.60,1.04,1.29
17.658,0.26,0.35,1.31,1.38
17.669,0.24,0.10,1.51,1.53
17.679,0.33,-0.09,1.67,1.70
17.688,0.56,-0.23,1.87,1.97
17.699,0.87,-0.24,2.17,2.35
17.708,1.41,-0.01,2.41,2.79
17.719,2.11,0.52,2.32,3.17
17.729,2.65,1.18,2.08,3.57
17.739,2.94,1.59,1.95,3.87
17.749,3.17,1.85,2.07,4.21
17.759,3.33,2.40,2.04,4.58
17.769,3.33,3.22,1.80,4.97
17.779,2.90,4.09,1.41,5.21
17.789,2.19,4.87,1.18,5.47
17.799,1.52,5.14,1.28,5.51
17.809,0.93,4.82,1.50,5.13
17.819,0.45,4.16,1.81,4.56
17.829,-0.04,3.34,1.58,3.70
17.839,-0.53,2.56,0.68,2.70
17.849,-0.95,1.66,0.08,1.91
17.859,-1.16,0.62,-0.04,1.32
17.869,-0.82,-0.46,0.23,0.97
17.880,-0.10,-1.00,0.42,1.09
17.890,0.52,-0.60,0.12,0.80
17.900,0.85,0.98,-0.84,1.54
17.910,0.96,2.45,-1.96,3.28
17.920,0.37,3.07,-2.89,4.23
17.930,-0.62,2.97,-3.91,4.95
17.940,-1.42,2.43,-4.73,5.51
17.950,-1.96,1.99,-4.89,5.63
17.960,-2.70,1.68,-4.49,5.50
17.970,-3.58,1.44,-3.98,5.54
17.980,-4.63,1.12,-3.58,5.96
17.990,-5.56,0.82,-3.10,6.42
18.000,-5.96,0.71,-2.33,6.44
18.011,-5.75,0.70,-2.00,6.13
18.020,-4.84,0.77,-2.13,5.35
18.030,-3.56,0.84,-1.99,4.16
18.040,-2.36,0.77,-1.74,3.03
18.050,-1.28,0.69,-1.67,2.22
18.060,-0.33,0.62,-1.63,1.78
18.070,0.29,0.57,-1.61,1.73
18.081,0.35,0.63,-1.49,1.65
18.091,0.58,0.94,-1.12,1.58
18.101,0.40,0.86,-1.09,1.44
18.111,0.05,0.51,-1.38,1.48
18.121,-0.22,0.19,-1.51,1.54
18.131,-0.48,0.06,-1.17,1.26
18.141,-0.66,-0.15,-0.89,1.11
18.151,-0.68,-0.32,-0.69,1.02
18.161,-0.66,-0.30,-0.67,0.99
18.171,-0.72,-0.54,-0.75,1.18
18.181,-0.89,-1.00,-0.67,1.49
18.191,-0.79,-1.52,-0.64,1.83
18.201,-0.45,-1.98,-0.61,2.12
18.211,-0.12,-2.46,-0.71,2.57
18.222,0.19,-2.94,-0.88,3.07
18.231,0.32,-3.25,-0.90,3.39
18.242,0.01,-3.20,-0.60,3.26
18.252,-0.10,-2.79,-0.17,2.79
18.262,0.04,-2.33,0.01,2.33
18.272,0.20,-1.87,-0.00,1.88
18.282,0.30,-1.59,-0.02,1.62
18.292,0.40,-1.62,-0.08,1.67
18.302,0.42,-2.02,-0.22,2.07
18.312,0.28,-2.30,-0.43,2.36
18.322,0.08,-2.54,-0.42,2.58
18.332,-0.21,-2.74,-0.36,2.77
18.342,-0.37,-2.86,-0.47,2.92
18.352,-0.45,-2.91,-0.52,2.99
18.362,-0.64,-2.83,-0.42,2.93
18.372,-0.90,-2.68,-0.06,2.83
18.382,-0.93,-2.54,0.27,2.72
18.392,-0.76,-2.43,0.40,2.58
18.403,-0.41,-2.25,0.36,2.32
18.412,0.02,-2.01,0.22,2.02
18.423,0.37,-1.77,0.17,1.82
18.433,0.63,-1.53,0.20,1.66
18.443,0.75,-1.28,0.31,1.51
18.453,0.66,-1.03,0.50,1.32
18.463,0.43,-0.83,0.74,1.20
18.473,0.25,-0.62,0.99,1.20
18.483,0.32,-0.37,1.03,1.15
18.493,0.65,-0.13,0.77,1.02
18.503,0.97,0.14,0.58,1.14
18.513,1.20,0.45,0.78,1.50
18.523,1.47,0.78,1.14,2.02
18.533,1.71,1.08,1.36,2.43
18.543,1.61,1.35,1.11,2.38
18.553,1.04,1.55,0.76,2.01
18.563,0.31,1.63,0.59,1.76
18.573,-0.31,2.20,0.44,2.27
18.584,-0.94,3.41,0.56,3.58
18.594,-1.59,4.68,0.83,5.01
18.604,-2.11,5.23,1.26,5.78
18.614,-2.15,4.90,2.16,5.77
18.624,-1.37,4.20,2.79,5.23
18.634,-0.32,4.08,2.27,4.68
18.644,0.16,4.04,1.62,4.36
18.654,0.14,3.45,1.07,3.62
18.664,-0.50,2.67,0.18,2.72
18.674,-1.32,2.00,-0.35,2.42
18.684,-1.74,1.66,-0.53,2.46
18.694,-1.83,1.35,-0.80,2.41
18.704,-1.88,0.83,-1.19,2.38
18.714,-1.94,0.30,-1.47,2.45
18.724,-1.91,0.04,-1.58,2.48
18.734,-1.64,0.01,-1.60,2.29
18.744,-1.19,0.09,-1.59,1.99
18.754,-0.85,0.14,-1.49,1.72
18.764,-0.56,0.05,-1.28,1.40
18.775,-0.30,-0.09,-1.12,1.16
18.785,-0.25,-0.34,-1.02,1.11
18.794,-0.22,-0.68,-0.96,1.20
18.805,-0.28,-0.96,-0.93,1.36
18.815,-0.32,-1.19,-0.81,1.48
18.825,-0.28,-1.35,-0.59,1.50
18.835,-0.18,-1.49,-0.41,1.55
18.845,-0.04,-1.66,-0.42,1.72
18.855,0.14,-1.94,-0.66,2.05
18.865,0.26,-2.26,-0.92,2.46
18.875,0.40,-2.57,-0.99,2.78
18.885,0.57,-2.80,-1.01,3.03
18.895,0.75,-3.02,-1.09,3.29
18.905,1.05,-3.19,-1.17,3.55
18.915,1.16,-3.02,-0.97,3.38
18.925,0.61,-2.95,-0.81,3.12
18.935,0.31,-3.30,-0.81,3.41
18.946,0.32,-3.54,-0.88,3.66
18.956,0.37,-3.34,-0.90,3.47
18.966,0.55,-2.90,-0.71,3.03
18.976,0.79,-2.27,-0.58,2.47
18.986,0.72,-1.59,-0.53,1.83
18.996,0.37,-1.12,-0.47,1.27
19.006,0.17,-0.75,-0.36,0.85
19.016,0.12,-0.42,-0.29,0.52
19.026,0.17,-0.17,-0.27,0.36
19.036,0.30,0.12,-0.27,0.42
19.046,0.35,0.41,-0.38,0.66
19.056,0.42,0.57,-0.18,0.73
19.066,0.37,0.66,0.08,0.76
19.076,0.28,0.68,0.36,0.82
19.087,0.26,0.55,0.58,0.84
19.096,0.32,0.41,0.70,0.87
19.106,0.36,0.20,0.66,0.77
19.116,0.36,-0.03,0.54,0.65
19.126,0.37,-0.20,0.64,0.76
19.136,0.37,-0.37,0.73,0.90
19.147,0.30,-0.43,0.72,0.89
19.157,0.32,-0.39,0.78,0.93
19.167,0.47,-0.47,0.85,1.08
19.177,0.65,-0.53,0.83,1.18
19.187,0.82,-0.47,0.72,1.19
19.197,0.85,-0.26,0.63,1.09
19.207,0.79,0.00,0.63,1.01
19.217,0.74,0.38,0.69,1.08
19.227,0.74,0.79,0.71,1.29
19.237,0.66,1.08,0.72,1.46
19.247,0.60,1.22,0.73,1.54
19.257,0.66,1.25,0.83,1.64
19.267,0.75,1.36,0.99,1.85
19.277,0.95,1.74,1.27,2.35
19.287,1.13,2.32,1.60,3.03
19.297,1.22,2.95,1.32,3.46
19.308,1.38,3.26,0.62,3.59
19.318,1.53,3.32,0.36,3.67
19.327,1.64,3.56,0.22,3.93
19.338,1.10,4.13,-0.02,4.27
19.348,0.05,4.51,-0.02,4.51
19.358,-0.64,4.37,0.04,4.42
19.368,-1.08,4.05,-0.17,4.20
19.378,-1.13,3.48,-0.47,3.69
19.388,-0.95,2.59,-1.08,2.96
19.398,-1.05,1.60,-1.83,2.65
19.408,-1.29,0.70,-2.40,2.81
19.418,-1.18,0.08,-2.56,2.82
19.428,-0.79,-0.14,-2.55,2.67
19.438,-0.41,-0.05,-2.48,2.51
19.448,-0.04,0.10,-2.32,2.32
19.458,0.11,0.32,-2.14,2.16
19.469,-0.03,0.58,-1.83,1.92
19.479,-0.34,0.86,-1.15,1.48
19.489,-0.73,0.78,-0.64,1.24
19.499,-1.05,0.33,-0.36,1.16
19.509,-1.28,-0.30,0.01,1.32
19.519,-1.38,-0.82,0.23,1.63
19.529,-1.27,-1.11,0.33,1.72
19.539,-0.98,-1.03,0.26,1.45
19.549,-0.55,-0.95,0.02,1.10
19.559,-0.26,-1.14,-0.26,1.20
19.569,0.13,-1.30,-0.52,1.41
19.579,0.36,-1.53,-0.77,1.75
19.589,0.15,-1.86,-0.87,2.06
19.599,-0.17,-2.22,-0.90,2.40
19.609,-0.31,-2.39,-0.80,2.53
19.619,-0.34,-2.58,-0.63,2.68
19.629,-0.48,-2.66,-0.53,2.75
19.639,-0.51,-2.67,-0.48,2.76
19.649,-0.48,-2.45,-0.33,2.52
19.659,-0.37,-2.27,-0.26,2.32
19.669,-0.12,-2.07,-0.30,2.09
19.680,0.08,-1.89,-0.29,1.92
19.690,0.31,-1.79,-0.24,1.83
19.700,0.43,-1.77,-0.09,1.82
19.710,0.33,-1.74,-0.06,1.78
19.720,0.22,-1.72,0.04,1.74
19.730,0.01,-1.74,0.17,1.75
19.740,-0.25,-1.64,0.22,1.68
19.750,-0.47,-1.45,0.30,1.55
19.760,-0.58,-1.32,0.35,1.48
19.770,-0.62,-1.19,0.38,1.39
19.780,-0.58,-1.03,0.35,1.23
19.790,-0.47,-0.84,0.34,1.02
19.800,-0.27,-0.67,0.35,0.80
19.810,0.03,-0.60,0.36,0.69
19.820,0.30,-0.56,0.44,0.77
19.830,0.51,-0.59,0.51,0.93
19.840,0.69,-0.52,0.54,1.02
19.851,0.81,-0.36,0.51,1.03
19.860,0.87,-0.21,0.28,0.93
19.871,0.84,-0.17,0.10,0.87
19.881,0.67,-0.25,0.13,0.72
19.891,0.40,-0.33,0.35,0.62
19.901,0.13,-0.35,0.76,0.85
19.911,-0.02,-0.28,1.14,1.17
19.921,0.05,-0.15,1.27,1.28
19.931,0.28,-0.04,1.17,1.20
19.941,0.53,0.02,1.06,1.19
19.951,0.72,0.13,1.00,1.24
19.961,0.86,0.26,1.06,1.39
19.971,0.97,0.42,1.24,1.63
19.981,1.12,0.55,1.43,1.90
19.991,1.24,0.70,1.53,2.09
20.001,1.22,0.89,1.49,2.12
20.011,1.06,1.11,1.44,2.11
20.021,0.67,1.31,1.24,1.93
20.032,-0.04,1.10,1.49,1.85
20.042,-0.43,0.93,1.74,2.02
20.052,-0.39,2.14,1.78,2.81
20.062,-0.69,4.30,1.66,4.66
20.072,-0.83,5.36,1.59,5.65
20.082,-0.27,5.80,1.81,6.08
20.092,-0.50,5.80,1.56,6.03
20.102,-0.98,5.28,0.94,5.45
20.112,-1.16,4.11,0.29,4.28
20.122,-1.27,2.89,-0.07,3.15
20.132,-1.04,2.04,-0.03,2.29
20.142,-0.59,1.54,-0.03,1.65
20.152,-0.26,1.22,-0.52,1.36
20.162,-0.16,0.91,-1.21,1.52
20.172,-0.20,0.47,-1.68,1.75
20.182,-0.26,-0.11,-1.76,1.78
20.193,-0.35,-0.58,-1.58,1.72
20.203,-0.57,-0.78,-1.43,1.73
20.213,-0.81,-0.75,-1.27,1.69
20.223,-0.95,-0.55,-1.16,1.60
20.233,-0.87,-0.46,-1.12,1.49
20.243,-0.65,-0.55,-1.19,1.46
20.253,-0.48,-0.83,-1.23,1.56
20.263,-0.35,-1.13,-1.15,1.65
20.273,-0.29,-1.35,-1.00,1.71
20.283,-0.34,-1.62,-0.80,1.84
20.293,-0.36,-1.91,-0.58,2.03
20.303,-0.34,-2.17,-0.43,2.24
20.313,-0.25,-2.46,-0.48,2.52
20.323,-0.04,-2.80,-0.67,2.88
20.333,0.14,-3.11,-0.72,3.20
20.343,0.31,-3.48,-0.84,3.59
20.353,0.40,-3.71,-0.93,3.84
20.363,0.48,-3.83,-0.76,3.93
20.374,0.61,-3.70,-0.64,3.81
20.384,0.78,-3.36,-0.58,3.50
20.394,0.77,-3.05,-0.43,3.17
20.404,0.72,-2.61,-0.37,2.73
20.414,0.69,-1.87,-0.34,2.02
20.424,0.63,-1.22,-0.39,1.43
20.434,0.49,-0.81,-0.41,1.04
20.444,0.20,-0.48,-0.46,0.69
20.454,0.00,-0.33,-0.54,0.63
20.464,0.09,-0.31,-0.56,0.65
20.474,0.24,-0.31,-0.51,0.64
20.484,0.32,-0.36,-0.36,0.60
20.494,0.30,-0.35,-0.27,0.53
20.504,0.25,-0.27,-0.19,0.42
20.514,0.25,-0.14,-0.11,0.31
20.524,0.22,-0.05,0.15,0.28
20.534,0.24,-0.22,0.47,0.57
20.544,0.34,-0.62,0.72,1.01
20.554,0.55,-0.90,0.85,1.35
20.564,0.81,-0.89,0.88,1.49
20.575,1.00,-0.65,0.81,1.44
20.585,1.11,-0.26,0.55,1.27
20.595,1.02,-0.01,0.33,1.07
20.605,0.81,0.00,0.07,0.82
20.615,0.51,-0.09,-0.09,0.53
20.625,0.28,-0.21,0.18,0.39
20.635,0.22,-0.37,0.53,0.68
20.645,0.38,-0.54,0.69,0.96
20.655,0.60,-0.54,0.70,1.07
20.665,0.78,-0.34,0.77,1.15
20.675,0.88,0.11,0.82,1.21
20.685,0.87,0.58,0.72,1.27
20.695,0.82,0.81,0.60,1.30
20.705,0.65,0.79,0.63,1.20
20.715,0.53,0.75,0.92,1.29
20.725,0.50,0.89,1.33,1.68
20.735,0.57,1.21,1.78,2.23
20.745,0.64,1.66,1.84,2.56
20.756,0.82,2.33,1.34,2.82
20.766,1.16,2.99,0.75,3.30
20.776,1.44,3.52,0.50,3.84
20.786,1.43,4.11,0.41,4.37
20.796,0.82,4.83,0.40,4.91
20.806,0.01,5.17,0.44,5.19
20.816,-0.37,5.06,0.22,5.08
20.826,-0.28,4.83,-0.20,4.84
20.836,0.01,4.39,-0.76,4.45
20.846,-0.00,3.58,-1.46,3.86
20.856,-0.27,2.53,-2.16,3.34
20.866,-0.60,1.45,-2.54,2.98
20.876,-0.85,0.58,-2.64,2.83
20.886,-0.97,0.03,-2.61,2.79
20.896,-1.02,-0.17,-2.46,2.67
20.907,-1.01,0.05,-2.14,2.37
20.916,-1.02,0.53,-1.99,2.30
20.927,-1.13,1.02,-1.86,2.41
20.937,-1.27,1.35,-1.30,2.26
20.947,-1.45,1.22,-0.55,1.97
20.957,-1.33,0.61,0.02,1.46
20.967,-0.97,-0.42,0.31,1.11
20.977,-0.90,-1.02,0.41,1.42
20.987,-0.76,-0.96,0.39,1.28
20.997,-0.11,-0.93,0.10,0.94
21.007,0.22,-0.95,-0.09,0.98
21.017,0.33,-1.00,-0.26,1.09
21.027,0.52,-1.20,-0.43,1.38
21.037,0.40,-1.58,-0.52,1.72
21.047,0.14,-1.92,-0.60,2.01
21.057,-0.17,-2.18,-0.63,2.28
21.067,-0.50,-2.28,-0.62,2.41
21.078,-0.73,-2.28,-0.67,2.49
21.087,-0.85,-2.36,-0.69,2.60
21.097,-0.80,-2.41,-0.67,2.63
21.108,-0.71,-2.58,-0.60,2.75
21.118,-0.54,-2.69,-0.59,2.81
21.128,-0.34,-2.59,-0.60,2.68
21.138,-0.12,-2.45,-0.50,2.50
21.148,-0.05,-2.29,-0.36,2.32
21.158,-0.08,-2.17,-0.24,2.19
21.168,-0.16,-2.10,-0.23,2.12
21.178,-0.16,-2.02,-0.20,2.03
21.188,-0.23,-1.82,0.04,1.84
21.198,-0.27,-1.55,0.34,1.61
21.208,-0.23,-1.27,0.51,1.39
21.218,-0.27,-1.06,0.66,1.28
21.228,-0.30,-0.86,0.73,1.17
21.238,-0.26,-0.70,0.56,0.94
21.248,-0.15,-0.65,0.29,0.72
21.258,-0.02,-0.63,0.01,0.63
21.268,0.09,-0.60,-0.27,0.66
21.279,-0.01,-0.54,-0.25,0.59
21.289,-0.16,-0.42,0.03,0.45
21.299,-0.26,-0.25,0.44,0.57
21.309,-0.26,-0.04,0.70,0.75
21.319,-0.14,0.10,0.80,0.81
21.329,0.09,0.02,0.84,0.84
21.339,0.32,-0.15,0.87,0.93
21.349,0.57,-0.33,0.97,1.18
21.359,0.84,-0.51,1.09,1.47
21.369,1.03,-0.68,1.13,1.67
21.379,1.07,-0.84,1.10,1.75
21.389,1.06,-0.90,1.14,1.80
21.399,1.04,-0.78,1.26,1.81
21.409,1.08,-0.51,1.33,1.79
21.419,1.17,-0.18,1.45,1.87
21.429,1.19,0.26,1.37,1.83
21.439,1.19,0.63,1.27,1.85
21.449,1.05,0.84,1.23,1.82
21.460,0.73,0.87,1.13,1.61
21.470,0.34,0.63,1.29,1.47
21.480,0.04,0.89,0.94,1.30
21.490,-0.12,2.17,0.46,2.22
21.500,-0.33,4.13,0.22,4.15
21.510,-0.94,5.48,0.24,5.56
21.520,-1.53,5.52,0.90,5.80
21.530,-1.36,5.33,1.96,5.84
21.540,-1.16,5.48,1.90,5.92
21.550,-1.41,4.81,0.94,5.10
21.560,-1.08,3.64,0.41,3.82
21.570,-0.57,2.45,0.22,2.53
21.580,0.01,1.63,0.20,1.64
21.590,0.26,1.19,-0.02,1.22
21.600,0.13,0.96,-0.36,1.03
21.610,-0.06,0.71,-0.63,0.95
21.621,-0.24,0.40,-0.86,0.98
21.630,-0.50,0.03,-1.13,1.24
21.641,-0.64,-0.33,-1.41,1.58
21.651,-0.75,-0.58,-1.58,1.84
21.661,-0.88,-0.63,-1.53,1.88
21.671,-1.06,-0.46,-1.30,1.74
21.681,-1.14,-0.12,-1.15,1.62
21.691,-0.98,0.12,-1.07,1.46
21.701,-0.67,0.03,-0.96,1.17
21.711,-0.28,-0.38,-0.87,0.98
21.721,-0.07,-0.86,-0.82,1.19
21.731,-0.03,-1.34,-0.77,1.54
21.741,-0.08,-1.79,-0.74,1.94
21.751,-0.12,-2.28,-0.70,2.38
21.761,-0.15,-2.67,-0.61,2.74
21.771,-0.20,-2.86,-0.56,2.92
21.781,-0.02,-3.23,-0.51,3.27
21.791,0.05,-3.72,-0.55,3.76
21.802,0.13,-4.00,-0.69,4.06
21.812,0.23,-3.82,-0.82,3.91
21.822,0.38,-3.76,-0.99,3.91
21.832,0.50,-3.57,-0.90,3.72
21.842,0.53,-3.28,-0.89,3.44
21.852,0.45,-2.93,-0.78,3.07
21.862,0.52,-2.46,-0.67,2.60
21.872,0.53,-1.98,-0.46,2.10
21.882,0.54,-1.47,-0.40,1.62
21.892,0.53,-1.10,-0.42,1.29
21.902,0.60,-0.84,-0.57,1.18
21.914,0.67,-0.62,-0.70,1.15
21.922,0.75,-0.31,-0.66,1.04
21.932,0.72,0.09,-0.55,0.91
21.942,0.57,0.48,-0.37,0.83
21.952,0.40,0.61,-0.16,0.75
21.962,0.25,0.42,0.04,0.49
21.972,0.17,0.14,0.20,0.30
21.982,0.20,-0.13,0.44,0.50
21.992,0.31,-0.42,0.79,0.95
22.003,0.51,-0.59,1.00,1.27
22.012,0.65,-0.58,1.00,1.32
22.023,0.76,-0.40,0.85,1.21
22.033,0.76,-0.16,0.65,1.02
22.043,0.69,-0.04,0.48,0.84
22.053,0.57,-0.03,0.44,0.72
22.063,0.43,-0.01,0.41,0.60
22.073,0.35,0.10,0.38,0.53
22.083,0.31,0.08,0.51,0.60
22.093,0.32,-0.06,0.60,0.68
22.103,0.45,-0.23,0.59,0.77
22.113,0.63,-0.30,0.67,0.97
22.123,0.86,-0.21,0.86,1.23
22.133,1.16,-0.07,0.98,1.51
22.144,1.40,0.07,0.87,1.65
22.153,1.51,0.14,0.70,1.67
22.163,1.43,0.25,0.70,1.61
22.174,1.22,0.61,0.81,1.59
22.184,1.00,1.10,0.96,1.77
22.194,0.83,1.63,1.17,2.17
22.204,0.74,2.29,1.13,2.66
22.214,0.83,3.01,0.61,3.18
22.224,1.07,3.37,0.26,3.55
22.234,1.52,3.62,0.25,3.93
22.244,1.63,4.26,0.30,4.57
22.254,0.99,4.85,0.35,4.96
22.264,0.10,5.10,0.20,5.11
22.274,-0.29,5.07,-0.24,5.09
22.284,-0.27,4.66,-0.74,4.73
22.294,-0.35,3.70,-1.15,3.89
22.304,-0.68,2.57,-1.46,3.03
22.314,-0.88,1.51,-1.71,2.44
22.325,-0.86,0.66,-1.96,2.23
22.334,-0.94,0.01,-2.19,2.38
22.344,-1.11,-0.26,-2.34,2.60
22.355,-1.12,-0.29,-2.23,2.51
22.365,-1.03,-0.07,-1.76,2.04
22.375,-0.91,0.28,-1.33,1.63
22.385,-0.84,0.76,-1.09,1.57
22.395,-0.81,0.96,-0.63,1.41
22.405,-0.86,0.59,-0.30,1.08
22.415,-0.76,-0.19,-0.23,0.82
22.425,-0.74,-0.93,-0.07,1.19
22.435,-0.65,-1.25,0.07,1.41
22.445,-0.25,-1.40,0.09,1.43
22.455,-0.08,-1.24,0.13,1.25
22.465,0.07,-0.88,0.05,0.89
22.475,0.45,-0.83,-0.15,0.95
22.485,0.56,-1.06,-0.27,1.23
22.495,0.38,-1.38,-0.40,1.48
22.505,0.13,-1.59,-0.58,1.70
22.515,-0.08,-1.69,-0.70,1.83
22.526,-0.31,-1.71,-0.61,1.84
22.536,-0.66,-1.76,-0.52,1.95
22.546,-0.88,-1.69,-0.35,1.93
22.556,-0.91,-1.59,-0.16,1.84
22.566,-0.93,-1.63,-0.14,1.89
22.576,-0.84,-1.73,-0.18,1.93
22.586,-0.59,-1.85,-0.08,1.94
22.596,-0.26,-1.85,-0.05,1.87
22.606,0.13,-1.82,-0.17,1.83
22.616,0.42,-1.79,-0.30,1.87
22.626,0.53,-1.80,-0.36,1.91
22.636,0.52,-1.82,-0.30,1.92
22.646,0.41,-1.81,-0.11,1.86
22.656,0.20,-1.79,0.14,1.81
22.666,-0.01,-1.81,0.42,1.86
22.676,-0.28,-1.78,0.56,1.89
22.686,-0.42,-1.75,0.60,1.90
22.696,-0.51,-1.70,0.59,1.87
22.707,-0.56,-1.55,0.51,1.72
22.717,-0.56,-1.28,0.50,1.48
22.727,-0.48,-0.96,0.49,1.18
22.737,-0.29,-0.76,0.61,1.01
22.747,-0.08,-0.69,0.78,1.05
22.757,0.02,-0.51,0.87,1.00
22.767,0.13,-0.35,0.89,0.96
22.777,0.29,-0.37,0.82,0.94
22.787,0.37,-0.47,0.71,0.93
22.797,0.38,-0.56,0.68,0.96
22.807,0.39,-0.52,0.79,1.02
22.817,0.44,-0.35,0.98,1.13
22.827,0.59,-0.18,1.16,1.32
22.837,0.78,-0.05,1.14,1.38
22.847,0.90,0.05,1.07,1.40
22.857,0.92,0.03,1.16,1.48
22.867,0.88,-0.08,1.35,1.61
22.877,0.95,-0.04,1.38,1.68
22.888,1.02,0.15,1.30,1.66
22.898,1.11,0.44,1.25,1.73
22.908,1.19,0.79,1.35,1.96
22.918,0.93,1.15,1.02,1.79
22.928,0.24,1.10,1.00,1.51
22.938,-0.37,1.03,1.22,1.64
22.948,-0.22,2.11,1.28,2.48
22.958,-0.10,4.21,1.09,4.35
22.968,-0.64,5.21,0.93,5.34
22.978,-0.69,4.66,1.59,4.97
22.988,-0.23,4.31,1.55,4.59
22.998,-0.63,4.12,0.90,4.26
23.008,-1.03,3.99,0.34,4.13
23.018,-1.10,3.55,0.11,3.72
23.028,-1.28,2.96,0.16,3.23
23.038,-1.55,2.30,0.05,2.78
23.048,-1.37,1.79,-0.16,2.26
23.059,-0.79,1.34,-0.28,1.58
23.069,-0.30,0.88,-0.49,1.05
23.078,-0.00,0.47,-0.82,0.95
23.089,0.18,0.21,-1.07,1.11
23.099,0.21,-0.09,-1.20,1.22
23.109,0.15,-0.45,-1.30,1.38
23.119,0.03,-0.74,-1.45,1.63
23.129,-0.15,-0.84,-1.55,1.77
23.139,-0.42,-0.66,-1.56,1.74
23.149,-0.61,-0.30,-1.42,1.57
23.159,-0.68,0.00,-1.31,1.47
23.169,-0.75,0.06,-1.22,1.44
23.179,-0.79,-0.08,-1.17,1.41
23.189,-0.67,-0.31,-1.06,1.30
23.199,-0.62,-0.60,-0.85,1.22
23.209,-0.67,-0.90,-0.61,1.28
23.219,-0.64,-1.19,-0.36,1.40
23.229,-0.52,-1.53,-0.24,1.63
23.240,-0.38,-1.82,-0.18,1.87
23.250,-0.09,-2.18,-0.21,2.19
23.260,0.12,-2.56,-0.28,2.58
23.270,0.42,-3.09,-0.43,3.15
23.280,0.64,-3.31,-0.58,3.42
23.290,0.79,-3.19,-0.69,3.35
23.300,0.92,-3.15,-0.78,3.37
23.310,0.87,-3.16,-0.81,3.37
23.320,0.83,-3.14,-0.85,3.36
23.330,0.80,-2.95,-0.97,3.21
23.340,0.70,-2.59,-1.04,2.88
23.350,0.55,-2.26,-0.94,2.51
23.360,0.42,-1.91,-0.83,2.13
23.370,0.30,-1.57,-0.65,1.72
23.380,0.19,-1.28,-0.54,1.40
23.390,0.13,-1.13,-0.40,1.21
23.400,0.12,-0.96,-0.24,1.00
23.410,0.26,-0.84,-0.13,0.89
23.421,0.41,-0.69,-0.07,0.81
23.431,0.49,-0.58,-0.17,0.78
23.441,0.41,-0.45,-0.23,0.65
23.451,0.32,-0.27,-0.12,0.44
23.461,0.24,-0.16,0.19,0.35
23.471,0.27,-0.03,0.57,0.63
23.481,0.43,0.09,0.79,0.91
23.491,0.59,0.23,1.04,1.22
23.501,0.77,0.20,1.07,1.34
23.511,0.94,0.08,1.04,1.41
23.521,1.06,0.05,0.94,1.42
23.531,1.19,0.05,0.78,1.43
23.541,1.19,-0.02,0.63,1.35
23.551,1.16,-0.17,0.57,1.31
23.561,1.10,-0.28,0.49,1.24
23.571,1.02,-0.33,0.42,1.15
23.581,0.94,-0.29,0.45,1.08
23.591,0.89,-0.19,0.59,1.08
23.602,0.84,-0.08,0.73,1.12
23.612,0.83,-0.05,0.87,1.21
23.622,0.84,0.02,0.95,1.27
23.632,0.87,0.22,1.10,1.42
23.642,0.95,0.55,1.12,1.57
23.652,0.91,0.96,1.28,1.84
23.662,0.83,1.40,1.38,2.13
23.672,0.85,1.78,1.28,2.35
23.682,0.97,2.25,1.13,2.70
23.692,1.19,3.01,0.95,3.37
23.702,1.25,3.97,0.81,4.24
23.712,1.07,4.83,0.77,5.01
23.722,0.64,5.20,0.92,5.32
23.732,0.37,5.02,0.78,5.09
23.742,0.23,4.78,0.33,4.79
23.752,0.24,4.82,-0.39,4.84
23.762,0.06,4.83,-1.41,5.03
23.773,-0.40,4.46,-2.43,5.10
23.783,-1.01,3.59,-3.03,4.80
23.793,-1.67,2.55,-3.25,4.46
23.803,-2.14,1.68,-3.39,4.34
23.813,-2.41,1.08,-3.30,4.22
23.823,-2.52,0.79,-2.77,3.82
23.833,-2.47,0.76,-2.09,3.32
23.843,-2.30,0.88,-1.45,2.86
23.853,-1.93,0.99,-1.01,2.39
23.863,-1.57,1.13,-0.64,2.04
23.873,-1.38,1.20,-0.29,1.85
23.883,-1.17,0.97,-0.15,1.53
23.893,-0.83,0.42,-0.02,0.93
23.903,-0.56,-0.40,0.19,0.72
23.913,-0.48,-0.74,0.24,0.92
23.923,-0.25,-0.96,0.11,0.99
23.933,0.09,-1.36,-0.13,1.37
23.943,0.27,-1.64,-0.31,1.69
23.954,0.50,-1.76,-0.50,1.90
23.963,0.62,-2.19,-0.73,2.39
23.974,0.42,-2.92,-0.91,3.08
23.984,0.16,-3.66,-1.19,3.86
23.994,0.18,-4.23,-1.33,4.43
24.004,0.20,-4.66,-1.33,4.85
24.014,-0.12,-5.06,-1.29,5.22
24.024,-0.66,-5.34,-1.12,5.50
24.034,-1.03,-5.36,-0.78,5.51
24.044,-1.34,-5.12,-0.52,5.32
24.054,-1.40,-4.66,-0.28,4.87
24.064,-1.20,-4.12,-0.12,4.29
24.074,-0.96,-3.45,-0.07,3.59
24.084,-0.64,-2.71,0.09,2.78
24.094,-0.31,-1.93,0.43,2.01
24.104,-0.19,-1.22,0.78,1.46
24.114,-0.04,-0.55,0.93,1.09
24.125,0.17,0.00,1.02,1.03
24.135,0.33,0.33,0.96,1.07
24.145,0.31,0.61,0.88,1.12
24.155,0.28,0.86,0.72,1.15
24.165,0.39,1.03,0.54,1.23
24.175,0.45,1.10,0.33,1.24
24.185,0.50,1.07,0.16,1.19
24.195,0.50,0.92,0.19,1.06
24.205,0.50,0.64,0.32,0.87
24.215,0.56,0.34,0.52,0.84
24.225,0.60,0.13,0.68,0.92
24.235,0.68,-0.13,0.74,1.02
24.245,0.72,-0.41,0.83,1.18
24.255,0.71,-0.48,0.79,1.17
24.265,0.74,-0.53,0.76,1.19
24.275,0.73,-0.67,0.85,1.31
24.285,0.70,-0.83,0.93,1.43
24.295,0.62,-1.00,1.05,1.57
24.305,0.53,-1.15,1.19,1.74
24.316,0.44,-1.22,1.40,1.90
24.326,0.34,-1.13,1.59,1.98
24.336,0.42,-0.84,1.58,1.84
24.346,0.64,-0.41,1.49,1.68
24.356,0.85,0.18,1.41,1.65
24.366,1.00,0.81,1.28,1.82
24.376,1.04,1.37,1.02,1.99
24.386,0.80,1.48,1.34,2.15
24.396,0.66,1.31,2.19,2.64
24.406,0.90,2.01,2.01,2.98
24.416,0.97,3.70,1.43,4.09
24.426,0.35,5.31,0.55,5.35
24.436,-0.46,5.53,0.76,5.60
24.446,-0.68,5.37,1.91,5.74
24.456,-1.12,5.65,2.22,6.17
24.466,-1.64,5.72,1.99,6.28
24.476,-1.38,5.27,1.43,5.63
24.487,-0.80,4.17,0.78,4.32
24.497,-0.21,2.71,0.12,2.72
24.507,0.22,1.66,-0.39,1.72
24.517,0.29,1.14,-0.83,1.44
24.527,0.11,0.75,-1.14,1.37
24.537,-0.12,0.14,-1.40,1.41
24.547,-0.59,-0.59,-1.75,1.94
24.557,-1.25,-1.28,-2.08,2.75
24.567,-1.79,-1.80,-2.19,3.36
24.577,-2.19,-1.94,-2.13,3.62
24.587,-2.34,-1.71,-1.76,3.39
24.597,-2.29,-1.26,-1.30,2.92
24.607,-2.04,-0.68,-1.10,2.41
24.617,-1.60,-0.23,-1.07,1.94
24.627,-1.03,-0.10,-1.09,1.51
24.637,-0.32,-0.31,-1.20,1.28
24.647,0.27,-0.72,-1.35,1.56
24.657,0.59,-1.28,-1.33,1.93
24.668,0.64,-1.84,-1.21,2.29
24.678,0.64,-2.37,-1.04,2.67
24.688,0.55,-2.93,-0.93,3.12
24.698,0.39,-3.38,-0.99,3.54
24.708,0.30,-3.52,-1.10,3.71
24.718,0.31,-3.64,-1.18,3.83
24.728,0.38,-3.74,-1.15,3.93
24.738,0.34,-3.68,-1.05,3.84
24.748,0.34,-3.45,-1.03,3.61
24.758,0.55,-2.99,-1.10,3.23
24.768,0.65,-2.31,-1.06,2.63
24.778,0.68,-1.72,-1.03,2.12
24.788,0.73,-1.13,-1.01,1.68
24.798,0.72,-0.70,-1.00,1.42
24.808,0.54,-0.49,-0.99,1.23
24.818,0.38,-0.43,-1.00,1.15
24.828,0.22,-0.40,-1.03,1.13
24.838,0.01,-0.42,-1.15,1.22
24.849,-0.18,-0.39,-1.25,1.32
24.859,-0.36,-0.38,-1.09,1.21
24.869,-0.59,-0.38,-0.79,1.06
24.879,-0.69,-0.35,-0.56,0.96
24.889,-0.60,-0.33,-0.35,0.77
24.899,-0.47,-0.27,-0.13,0.56
24.909,-0.29,-0.21,0.12,0.37
24.919,0.02,-0.13,0.22,0.26
24.929,0.37,-0.03,0.19,0.42
24.939,0.58,-0.00,0.10,0.59
24.949,0.61,-0.07,-0.00,0.62
24.959,0.61,-0.16,-0.12,0.64
24.969,0.48,-0.20,-0.23,0.57
24.979,0.32,-0.26,-0.25,0.48
24.989,0.11,-0.36,-0.13,0.39
24.999,-0.01,-0.43,0.04,0.43
25.009,-0.09,-0.38,0.19,0.44
25.020,-0.03,-0.22,0.11,0.25
25.030,0.10,-0.05,-0.07,0.13
25.040,0.16,-0.03,-0.14,0.22
25.050,0.23,-0.18,-0.05,0.30
25.060,0.39,-0.31,0.16,0.53
25.070,0.62,-0.28,0.29,0.74
25.080,0.86,-0.10,0.31,0.92
25.090,1.02,0.08,0.28,1.06
25.100,1.07,0.14,0.31,1.13
25.110,1.12,0.11,0.33,1.18
25.120,1.12,0.07,0.31,1.17
25.130,1.17,0.11,0.33,1.22
25.140,1.17,0.12,0.41,1.25
25.150,1.15,0.12,0.49,1.26
25.160,1.13,0.19,0.56,1.28
25.170,1.09,0.27,0.57,1.26
25.180,0.97,0.19,0.56,1.14
25.191,0.85,0.11,0.58,1.03
25.200,0.87,0.08,0.60,1.06
25.211,0.91,0.08,0.58,1.08
25.221,1.02,0.06,0.50,1.13
25.231,1.04,0.01,0.13,1.05
25.241,0.74,-0.08,-0.35,0.82
25.251,0.41,0.00,-0.54,0.68
25.261,0.19,0.37,-0.50,0.65
25.271,-0.02,0.89,-0.29,0.93
25.281,-0.22,1.30,-0.10,1.32
25.291,-0.41,1.43,0.02,1.49
25.301,-0.43,1.38,-0.02,1.44
25.311,-0.38,1.23,-0.30,1.33
25.321,-0.33,0.92,-0.49,1.10
25.331,-0.29,0.55,-0.46,0.77
25.341,-0.33,0.22,-0.24,0.47
25.351,-0.47,-0.08,-0.16,0.50
25.361,-0.63,-0.36,-0.35,0.81
25.372,-0.84,-0.58,-0.59,1.18
25.381,-1.05,-0.82,-0.76,1.53
25.392,-1.03,-0.98,-0.81,1.64
25.402,-0.78,-1.13,-0.80,1.59
25.412,-0.45,-1.38,-0.50,1.54
25.422,-0.18,-1.50,-0.17,1.52
25.432,-0.03,-1.36,0.11,1.36
25.442,-0.03,-1.12,0.46,1.21
25.452,-0.05,-0.90,0.77,1.18
25.462,-0.21,-0.57,0.74,0.96
25.472,-0.44,0.04,0.77,0.88
25.482,-0.45,0.64,0.99,1.26
25.492,-0.49,0.98,0.96,1.46
25.502,-0.56,1.18,0.66,1.47
25.512,-0.75,1.34,0.44,1.60
25.522,-0.84,1.35,0.46,1.65
25.532,-0.76,1.18,0.46,1.48
25.543,-0.59,0.97,0.43,1.22
25.552,-0.53,0.71,0.36,0.95
25.563,-0.52,0.46,0.14,0.71
25.573,-0.46,0.23,0.01,0.52
25.583,-0.46,-0.01,-0.08,0.47
25.593,-0.46,-0.19,0.01,0.50
25.603,-0.55,-0.40,0.15,0.70
25.613,-0.62,-0.63,0.28,0.93
25.623,-0.67,-0.87,0.45,1.18
25.633,-0.67,-1.05,0.66,1.41
25.643,-0.70,-1.14,0.79,1.55
25.653,-0.72,-1.18,0.78,1.58
25.663,-0.73,-1.18,0.76,1.58
25.673,-0.70,-1.04,0.73,1.45
25.683,-0.70,-0.82,0.61,1.24
25.693,-0.69,-0.67,0.56,1.11
25.703,-0.58,-0.59,0.47,0.95
25.713,-0.53,-0.56,0.45,0.90
25.723,-0.56,-0.56,0.50,0.94
25.733,-0.50,-0.60,0.69,1.04
25.744,-0.43,-0.56,0.83,1.09
25.754,-0.38,-0.39,0.78,0.95
25.764,-0.41,-0.19,0.69,0.83
25.774,-0.56,-0.10,0.62,0.84
25.784,-0.62,-0.03,0.63,0.89
25.794,-0.73,-0.02,0.62,0.96
25.804,-0.83,0.02,0.46,0.95
25.814,-0.88,-0.01,0.29,0.93
25.824,-0.99,-0.20,0.23,1.04
25.834,-0.94,-0.51,0.41,1.15
25.844,-0.53,-0.17,0.04,0.56
25.854,-0.43,0.16,0.41,0.61
25.865,-0.24,0.13,0.40,0.49
25.874,0.10,0.37,0.26,0.46
25.884,0.33,0.81,0.23,0.91
25.894,0.46,1.09,0.25,1.21
