time,ax,ay,az,atotal
0.000,0.06,-0.08,0.04,0.11
0.010,0.03,-0.13,0.01,0.13
0.020,0.00,-0.07,0.04,0.08
0.030,0.03,-0.10,-0.01,0.10
0.040,0.00,-0.16,-0.04,0.16
0.050,0.07,-0.08,-0.03,0.11
0.060,0.12,0.02,-0.05,0.13
0.070,0.09,0.03,-0.02,0.09
0.081,0.09,0.04,0.04,0.11
0.091,0.13,0.06,-0.00,0.14
0.101,0.16,0.03,-0.02,0.16
0.111,0.17,0.04,0.02,0.17
0.121,0.18,0.02,0.04,0.19
0.131,0.24,0.29,-0.04,0.38
0.141,0.04,-0.10,0.00,0.11
0.151,0.13,-0.16,0.08,0.22
0.161,0.18,-0.05,0.06,0.19
0.171,0.19,-0.00,0.03,0.19
0.181,0.19,-0.01,0.00,0.19
0.191,0.17,0.01,0.03,0.17
0.201,0.16,-0.01,0.05,0.17
0.211,0.17,-0.06,0.08,0.20
0.221,0.18,-0.06,0.10,0.21
0.232,0.18,-0.00,0.07,0.19
0.242,0.17,0.03,0.07,0.19
0.252,0.22,0.09,0.05,0.25
0.262,0.25,0.07,0.04,0.26
0.272,0.20,-0.04,0.04,0.21
0.282,0.12,-0.08,0.07,0.16
0.292,0.06,-0.09,0.10,0.14
0.302,0.02,-0.02,0.10,0.10
0.312,0.12,-0.03,0.02,0.13
0.322,0.16,-0.19,0.06,0.25
0.332,0.17,-0.27,0.21,0.38
0.342,0.12,-0.25,0.19,0.34
0.352,0.12,-0.08,0.08,0.17
0.362,0.12,0.08,0.01,0.15
0.372,0.04,0.14,-0.04,0.15
0.383,0.09,0.10,-0.02,0.13
0.393,0.03,-0.01,0.02,0.04
0.403,-0.05,-0.11,0.09,0.15
0.413,-0.08,-0.14,0.14,0.21
0.423,-0.09,-0.12,0.13,0.20
0.433,-0.02,-0.06,0.09,0.11
0.443,0.03,0.03,0.06,0.07
0.453,0.08,-0.02,0.01,0.09
0.463,0.13,-0.11,-0.03,0.17
0.473,0.02,-0.08,0.04,0.10
0.483,-0.04,-0.03,0.10,0.11
0.493,0.04,0.01,0.15,0.16
0.503,0.08,0.04,0.14,0.16
0.513,0.07,0.03,0.08,0.11
0.524,0.06,-0.04,0.05,0.09
0.533,0.07,-0.16,0.10,0.20
0.544,0.12,-0.21,0.15,0.28
0.554,0.22,-0.15,0.21,0.34
0.564,0.25,-0.02,0.21,0.33
0.574,0.17,0.08,0.19,0.27
0.584,0.07,0.09,0.16,0.19
0.594,-0.01,0.06,0.14,0.16
0.604,-0.08,0.02,0.11,0.14
0.614,-0.10,-0.03,0.04,0.11
0.624,-0.07,-0.11,-0.03,0.13
0.634,-0.02,-0.16,-0.02,0.17
0.644,0.03,-0.16,0.00,0.16
0.654,0.06,-0.04,0.03,0.08
0.664,0.05,0.06,0.04,0.09
0.674,0.03,0.09,0.03,0.10
0.684,0.03,0.08,0.03,0.09
0.695,0.04,0.12,-0.01,0.12
0.705,0.07,0.10,-0.10,0.15
0.715,0.07,0.02,-0.12,0.14
0.725,0.03,-0.07,-0.11,0.13
0.735,0.00,-0.12,-0.08,0.15
0.745,-0.02,-0.10,-0.03,0.11
0.755,-0.03,-0.04,-0.03,0.06
0.765,-0.02,0.01,-0.01,0.03
0.775,0.05,0.02,-0.05,0.08
0.785,0.11,-0.01,-0.05,0.12
0.795,0.19,-0.01,-0.02,0.20
0.805,0.30,0.00,-0.05,0.30
0.815,0.35,-0.02,-0.09,0.37
0.825,0.35,-0.08,-0.14,0.39
0.835,0.26,-0.12,-0.12,0.31
0.845,0.16,-0.07,-0.10,0.20
0.855,0.14,0.02,-0.12,0.19
0.866,0.15,0.05,-0.11,0.20
0.876,0.20,0.03,-0.13,0.24
0.886,0.24,0.09,-0.21,0.33
0.896,0.06,-0.00,-0.20,0.21
0.906,0.08,-0.06,-0.10,0.14
0.916,0.17,0.06,-0.01,0.18
0.926,0.20,-0.09,0.04,0.23
0.936,0.24,-0.26,0.08,0.36
0.946,0.25,-0.05,0.11,0.28
0.956,0.36,0.06,0.04,0.37
0.966,0.34,-0.08,-0.08,0.36
0.976,0.17,-0.12,-0.09,0.23
0.986,0.06,-0.11,0.01,0.12
0.996,-0.01,-0.09,0.13,0.16
1.006,-0.06,-0.07,0.17,0.20
1.017,-0.05,-0.04,0.12,0.14
1.027,-0.10,0.09,0.02,0.14
1.037,0.05,0.24,0.13,0.28
1.047,0.12,0.19,0.21,0.31
1.057,0.03,-0.01,0.15,0.16
1.067,-0.03,-0.10,0.15,0.18
1.077,-0.05,-0.02,0.11,0.12
1.087,-0.03,0.05,0.10,0.11
1.097,0.03,0.05,0.07,0.09
1.107,0.15,0.07,0.06,0.18
1.117,0.21,0.06,0.04,0.22
1.127,0.16,0.03,-0.03,0.17
1.137,0.11,-0.01,-0.02,0.11
1.147,0.09,-0.06,0.03,0.12
1.157,0.10,-0.11,0.05,0.16
1.168,0.17,-0.12,0.07,0.23
1.178,0.22,-0.13,0.08,0.27
1.188,0.14,-0.17,0.07,0.24
1.198,0.04,-0.10,0.05,0.12
1.208,-0.02,0.01,0.01,0.02
1.218,-0.08,0.08,-0.04,0.12
1.228,-0.11,0.04,-0.09,0.15
1.238,-0.10,-0.02,-0.13,0.17
1.248,-0.09,-0.04,-0.16,0.19
1.258,-0.11,-0.08,-0.17,0.22
1.268,-0.16,-0.08,-0.16,0.24
1.278,-0.18,-0.03,-0.12,0.21
1.288,-0.21,0.02,-0.07,0.22
1.298,-0.18,0.04,-0.03,0.18
1.309,-0.11,0.07,0.03,0.13
1.318,-0.02,0.04,0.06,0.08
1.329,0.07,-0.03,0.03,0.09
1.339,0.12,-0.09,0.02,0.15
1.349,0.11,-0.16,0.05,0.20
1.359,0.10,-0.15,0.03,0.18
1.369,0.07,-0.10,0.01,0.13
1.379,0.07,-0.05,-0.01,0.09
1.389,0.09,0.02,-0.05,0.10
1.399,0.07,0.08,-0.07,0.13
1.409,0.03,0.08,-0.05,0.10
1.419,0.03,0.06,-0.01,0.06
1.429,0.04,-0.00,0.01,0.05
1.439,0.02,-0.02,0.02,0.04
1.449,0.05,0.03,0.07,0.09
1.460,0.16,0.02,0.11,0.20
1.470,0.19,-0.03,0.08,0.21
1.480,0.15,-0.03,0.03,0.15
1.490,0.18,0.02,0.11,0.21
1.500,0.26,-0.01,0.23,0.35
1.510,0.21,-0.13,0.23,0.34
1.520,0.17,-0.14,0.19,0.29
1.530,0.17,-0.07,0.14,0.23
1.540,0.16,-0.03,0.08,0.18
1.550,0.12,-0.05,0.02,0.13
1.560,0.12,-0.05,0.04,0.13
1.570,0.16,-0.05,0.08,0.19
1.580,0.18,-0.03,0.09,0.21
1.590,0.18,0.04,0.02,0.18
1.600,0.14,0.05,-0.03,0.15
1.610,0.09,-0.03,-0.05,0.10
1.620,0.05,-0.04,-0.03,0.07
1.631,0.03,-0.04,0.01,0.05
1.641,0.02,-0.07,0.06,0.10
1.651,0.03,-0.07,0.09,0.12
1.661,-0.00,-0.05,0.06,0.08
1.671,0.00,-0.02,0.02,0.03
1.681,0.05,0.02,0.03,0.06
1.691,0.09,0.00,0.05,0.10
1.701,0.11,-0.02,0.05,0.12
1.711,0.11,-0.04,0.02,0.12
1.721,0.05,-0.07,0.00,0.08
1.731,0.01,-0.07,0.03,0.07
1.741,0.01,-0.04,0.06,0.07
1.751,0.03,-0.02,0.06,0.07
1.761,0.05,-0.04,0.02,0.07
1.771,0.04,0.00,-0.02,0.05
1.781,0.05,0.04,0.01,0.06
1.792,0.07,0.05,0.02,0.09
1.802,0.05,0.02,0.04,0.07
1.812,0.04,0.01,0.04,0.06
1.822,0.06,-0.01,0.02,0.06
1.832,0.09,-0.04,0.03,0.10
1.842,0.14,-0.10,0.03,0.18
1.852,0.15,-0.12,0.04,0.20
1.862,0.15,-0.15,0.09,0.24
1.872,0.13,-0.18,0.14,0.26
1.882,0.09,-0.17,0.18,0.26
1.892,0.10,-0.16,0.16,0.25
1.902,0.15,-0.09,0.10,0.20
1.912,0.16,0.02,0.02,0.16
1.922,0.15,0.07,-0.12,0.21
1.932,0.04,0.08,-0.18,0.20
1.942,-0.11,0.06,-0.14,0.19
1.953,-0.17,0.05,-0.07,0.20
1.963,-0.13,0.03,-0.04,0.14
1.973,-0.05,0.05,-0.05,0.09
1.983,0.02,0.02,-0.07,0.08
1.993,0.03,-0.03,-0.07,0.08
2.003,0.04,-0.07,-0.05,0.09
2.013,-0.00,-0.09,0.01,0.09
2.023,0.00,-0.03,0.12,0.12
2.033,0.13,0.01,0.20,0.23
2.043,0.18,-0.03,0.18,0.26
2.053,0.18,-0.04,0.17,0.25
2.063,0.17,-0.03,0.16,0.23
2.073,0.15,0.00,0.12,0.19
2.083,0.22,-0.01,0.10,0.24
2.094,0.27,-0.07,0.11,0.30
2.104,0.29,-0.11,0.10,0.32
2.114,0.29,-0.12,0.07,0.32
2.124,0.26,-0.12,0.09,0.30
2.134,0.23,-0.09,0.09,0.27
2.144,0.20,-0.06,0.05,0.22
2.154,0.13,-0.08,-0.01,0.16
2.164,0.05,-0.05,0.01,0.07
2.174,0.06,-0.04,-0.03,0.07
2.184,0.08,0.05,-0.07,0.12
2.194,0.02,0.03,-0.06,0.08
2.204,0.05,0.07,-0.03,0.10
2.214,0.10,0.11,-0.06,0.16
2.224,0.07,0.08,-0.10,0.14
2.235,0.07,0.00,-0.04,0.08
2.245,0.06,-0.05,0.02,0.08
2.255,0.09,-0.07,0.07,0.13
2.265,0.15,-0.04,0.08,0.17
2.275,0.17,-0.01,0.08,0.19
2.285,0.15,-0.00,0.08,0.17
2.295,0.12,-0.01,0.10,0.16
2.305,0.13,-0.02,0.09,0.16
2.315,0.12,-0.03,0.09,0.15
2.325,0.14,0.02,0.10,0.17
2.335,0.17,0.01,0.05,0.18
2.345,0.14,-0.07,0.01,0.16
2.355,0.10,-0.09,-0.00,0.13
2.365,0.06,-0.11,-0.01,0.13
2.375,0.02,-0.08,-0.03,0.09
2.386,0.02,-0.02,-0.06,0.07
2.396,-0.03,0.01,-0.07,0.08
2.406,-0.06,0.02,-0.12,0.14
2.416,-0.10,0.01,-0.11,0.15
2.426,-0.08,0.01,-0.10,0.13
2.436,-0.06,0.03,-0.09,0.11
2.446,0.00,0.07,-0.08,0.11
2.456,0.03,0.09,-0.07,0.12
2.466,0.03,0.05,-0.07,0.09
2.476,0.03,-0.00,-0.09,0.10
2.486,-0.01,-0.04,-0.11,0.12
2.496,-0.04,-0.03,-0.11,0.12
2.506,-0.04,-0.02,-0.08,0.09
2.516,-0.01,-0.04,-0.04,0.05
2.526,0.03,-0.05,-0.04,0.07
2.536,0.08,-0.05,-0.03,0.09
2.546,0.16,-0.02,-0.05,0.17
2.557,0.19,0.02,-0.09,0.21
2.567,0.20,0.03,-0.11,0.23
2.577,0.21,0.02,-0.07,0.23
2.587,0.23,-0.03,-0.02,0.23
2.597,0.16,-0.06,0.04,0.18
2.607,0.19,-0.08,0.05,0.21
2.617,0.24,-0.05,0.04,0.24
2.627,0.26,-0.01,0.01,0.26
2.637,0.29,0.04,0.02,0.29
2.647,0.29,0.07,0.01,0.30
2.657,0.28,0.04,-0.01,0.28
2.667,0.24,-0.03,-0.04,0.24
2.677,0.19,-0.07,-0.06,0.21
2.687,0.18,-0.11,-0.02,0.21
2.697,0.15,-0.11,-0.00,0.19
2.707,0.13,-0.10,0.03,0.17
2.717,0.12,-0.04,0.02,0.13
2.728,0.08,0.01,-0.01,0.08
2.738,0.04,0.01,-0.01,0.04
2.748,0.03,0.02,-0.03,0.05
2.758,0.01,0.02,-0.03,0.04
2.768,0.02,0.03,0.01,0.03
2.778,0.02,0.05,-0.02,0.06
2.788,0.01,0.01,-0.03,0.04
2.798,0.02,-0.02,0.01,0.03
2.808,0.01,-0.04,0.01,0.04
2.818,-0.02,-0.05,-0.02,0.05
2.828,-0.00,-0.06,0.02,0.07
2.838,-0.01,-0.09,0.01,0.10
2.848,-0.03,-0.09,0.00,0.09
2.859,-0.01,-0.05,-0.04,0.07
2.868,-0.04,-0.00,-0.04,0.05
2.879,-0.07,0.05,-0.04,0.09
2.889,-0.06,0.09,-0.07,0.13
2.899,-0.04,0.07,-0.12,0.14
2.909,-0.05,0.02,-0.12,0.13
2.919,-0.04,-0.04,-0.09,0.10
2.929,-0.00,-0.06,-0.04,0.07
2.939,-0.00,-0.08,-0.02,0.08
2.949,-0.03,-0.05,-0.08,0.10
2.959,-0.05,0.01,-0.14,0.15
2.969,-0.06,0.08,-0.13,0.16
2.979,-0.03,0.09,-0.09,0.13
2.989,0.00,0.07,-0.05,0.09
2.999,0.04,0.04,-0.04,0.07
3.009,0.06,-0.01,-0.05,0.08
3.019,0.05,-0.05,-0.09,0.11
3.029,0.01,-0.07,-0.11,0.13
3.040,-0.00,-0.08,-0.08,0.11
3.049,0.01,-0.09,-0.04,0.10
3.060,0.03,-0.11,-0.05,0.12
3.070,0.02,-0.08,-0.07,0.11
3.080,0.05,-0.00,-0.04,0.06
3.090,0.04,0.07,-0.04,0.09
3.100,0.02,0.11,-0.06,0.12
3.110,0.03,0.08,-0.07,0.11
3.120,0.03,0.00,-0.09,0.09
3.130,0.04,-0.04,-0.07,0.09
3.140,0.05,-0.06,-0.05,0.09
3.150,0.02,-0.07,-0.05,0.09
3.160,0.02,-0.05,-0.04,0.07
3.170,0.01,-0.02,0.01,0.02
3.181,0.05,0.01,0.01,0.05
3.191,0.09,0.04,0.02,0.10
3.201,0.10,0.05,0.05,0.12
3.211,0.12,0.00,0.05,0.13
3.221,0.11,-0.04,0.07,0.14
3.231,0.13,-0.08,0.09,0.18
3.241,0.16,-0.11,0.11,0.22
3.251,0.15,-0.10,0.08,0.20
3.261,0.13,-0.08,0.03,0.16
3.271,0.08,-0.05,-0.01,0.10
3.281,0.05,-0.03,-0.02,0.06
3.291,0.00,0.00,-0.04,0.04
3.301,-0.03,0.05,-0.06,0.08
3.311,-0.04,0.06,-0.05,0.09
3.321,-0.05,0.03,-0.03,0.06
3.331,-0.04,-0.01,0.00,0.04
3.341,-0.00,-0.03,0.05,0.06
3.351,0.06,-0.00,0.03,0.06
3.362,0.08,0.03,0.04,0.10
3.372,0.09,0.00,0.05,0.10
3.382,0.06,-0.03,0.03,0.07
3.392,0.01,-0.06,0.03,0.07
3.402,0.00,-0.09,0.09,0.13
3.412,0.02,-0.11,0.09,0.15
3.422,0.04,-0.09,0.06,0.12
3.432,0.04,-0.05,0.03,0.07
3.442,0.02,-0.03,0.01,0.04
3.452,0.01,0.01,-0.01,0.01
3.462,-0.01,0.01,0.00,0.01
3.472,0.02,-0.02,0.01,0.03
3.482,0.01,-0.00,0.02,0.03
3.492,0.04,0.02,0.04,0.06
3.503,0.08,0.01,0.04,0.09
3.513,0.08,-0.03,0.02,0.09
3.523,0.05,-0.03,0.01,0.06
3.533,0.03,-0.02,0.00,0.03
3.543,0.02,-0.03,-0.01,0.03
3.553,0.01,-0.03,-0.01,0.03
3.563,0.02,-0.03,0.01,0.04
3.573,0.05,-0.06,0.02,0.08
3.583,0.07,-0.06,0.02,0.09
3.593,0.07,-0.03,0.01,0.08
3.603,0.08,0.00,-0.00,0.08
3.613,0.05,0.01,-0.00,0.05
3.623,0.05,0.00,0.02,0.06
3.633,0.04,-0.03,0.05,0.07
3.643,0.06,-0.06,0.05,0.10
3.653,0.09,-0.07,0.06,0.13
3.664,0.12,-0.06,0.03,0.14
3.674,0.11,-0.03,0.00,0.11
3.684,0.05,-0.03,-0.02,0.06
3.694,0.02,-0.00,-0.01,0.03
3.704,0.00,-0.00,-0.01,0.01
3.714,0.01,-0.03,-0.02,0.04
3.724,0.04,-0.00,-0.03,0.05
3.734,0.09,0.01,-0.02,0.09
3.744,0.13,-0.02,-0.03,0.14
3.754,0.14,-0.04,-0.02,0.15
3.764,0.12,-0.04,0.02,0.13
3.774,0.11,-0.02,0.07,0.13
3.784,0.13,0.03,0.10,0.17
3.794,0.15,0.07,0.03,0.17
3.805,0.12,0.06,-0.03,0.14
3.814,0.05,-0.00,-0.03,0.06
3.825,0.02,-0.08,0.00,0.09
3.835,0.00,-0.12,0.04,0.12
3.845,0.02,-0.13,0.03,0.14
3.855,0.03,-0.15,-0.01,0.15
3.865,0.02,-0.08,-0.04,0.09
3.875,0.01,0.00,-0.05,0.05
3.885,-0.01,0.04,-0.07,0.08
3.895,-0.03,0.01,-0.09,0.09
3.905,-0.01,0.01,-0.09,0.09
3.915,0.03,0.01,-0.11,0.12
3.925,0.05,-0.01,-0.09,0.11
3.935,0.09,0.02,-0.03,0.09
3.945,0.11,-0.01,0.01,0.11
3.955,0.10,-0.04,0.02,0.11
3.965,0.10,-0.05,0.04,0.12
3.976,0.11,-0.07,0.07,0.15
3.986,0.13,-0.07,0.04,0.15
3.996,0.14,-0.07,0.02,0.16
4.006,0.14,-0.06,0.03,0.16
4.016,0.13,-0.05,0.04,0.15
4.026,0.11,-0.04,0.03,0.12
4.036,0.06,-0.03,-0.02,0.07
4.046,0.05,0.03,0.01,0.06
4.056,0.11,0.04,0.08,0.14
4.066,0.13,0.03,0.11,0.17
4.076,0.12,0.05,0.09,0.16
4.086,0.10,0.06,0.08,0.14
4.096,0.10,0.02,0.04,0.11
4.106,0.07,-0.05,0.02,0.09
4.116,0.04,-0.09,0.02,0.10
4.127,0.00,-0.09,0.02,0.10
4.136,-0.04,-0.08,0.03,0.09
4.147,-0.06,-0.03,0.03,0.08
4.157,-0.04,-0.02,0.03,0.06
4.167,-0.04,-0.04,0.02,0.06
4.177,-0.04,-0.03,-0.01,0.05
4.187,-0.03,-0.02,0.01,0.04
4.197,-0.00,-0.02,-0.02,0.03
4.207,0.02,-0.01,-0.03,0.03
4.217,0.06,0.00,-0.01,0.06
4.227,0.07,-0.01,0.01,0.07
4.237,0.06,-0.02,0.05,0.08
4.247,0.05,-0.03,0.02,0.06
4.257,0.04,-0.04,0.02,0.06
4.267,0.03,-0.01,0.03,0.04
4.277,0.03,0.04,0.01,0.05
4.288,0.06,0.08,0.02,0.10
4.298,0.10,0.06,0.02,0.12
4.308,0.10,-0.02,0.04,0.11
4.318,0.07,-0.09,0.05,0.13
4.328,0.05,-0.10,0.07,0.13
4.338,0.05,-0.06,0.05,0.09
4.348,0.05,-0.03,0.06,0.09
4.358,0.07,-0.05,0.08,0.12
4.368,0.06,-0.07,0.06,0.11
4.378,0.05,-0.07,0.07,0.11
4.388,0.02,-0.06,0.07,0.09
4.398,0.04,-0.01,0.03,0.05
4.408,0.08,0.00,0.00,0.08
4.418,0.06,0.00,-0.02,0.06
4.428,0.05,0.00,-0.00,0.05
4.438,0.05,0.02,0.03,0.06
4.448,0.05,0.01,0.01,0.06
4.459,0.04,-0.00,0.02,0.05
4.469,0.05,-0.03,-0.01,0.06
4.479,0.08,-0.06,-0.01,0.10
4.489,0.08,-0.04,0.01,0.09
4.499,0.06,-0.03,0.04,0.08
4.509,0.09,-0.05,0.08,0.13
4.519,0.12,-0.06,0.07,0.15
4.529,0.12,-0.01,-0.02,0.12
4.539,0.09,0.01,-0.02,0.09
4.549,0.07,-0.02,-0.02,0.07
4.559,0.04,-0.04,-0.00,0.06
4.569,0.04,-0.09,0.02,0.10
4.579,0.05,-0.10,0.03,0.12
4.589,0.05,-0.08,0.02,0.09
4.599,0.04,-0.05,-0.01,0.07
4.609,0.04,-0.02,-0.05,0.07
4.620,0.06,0.01,-0.05,0.08
4.630,0.07,0.01,-0.01,0.07
4.640,0.08,-0.01,-0.01,0.08
4.650,0.07,0.01,-0.01,0.07
4.660,0.07,0.05,-0.02,0.09
4.670,0.06,0.04,-0.04,0.07
4.680,0.03,0.01,-0.04,0.05
4.690,0.04,-0.03,-0.03,0.05
4.700,0.05,-0.04,-0.01,0.07
4.710,0.10,-0.07,-0.01,0.12
4.720,0.11,-0.09,-0.04,0.15
4.730,0.09,-0.08,-0.06,0.13
4.740,0.03,-0.02,-0.07,0.08
4.750,-0.02,0.01,-0.07,0.07
4.760,-0.05,0.03,-0.01,0.06
4.770,-0.03,0.04,0.02,0.06
4.781,0.01,0.02,0.02,0.03
4.791,0.07,-0.01,-0.01,0.07
4.801,0.09,-0.04,-0.06,0.12
4.811,0.08,-0.05,-0.07,0.12
4.821,0.08,-0.04,-0.03,0.09
4.831,0.08,-0.04,-0.00,0.09
4.841,0.09,-0.03,-0.01,0.10
4.851,0.09,-0.04,-0.05,0.11
4.861,0.08,-0.04,-0.08,0.12
4.871,0.06,-0.00,-0.10,0.12
4.881,0.05,0.03,-0.06,0.09
4.891,0.06,0.02,-0.01,0.07
4.901,0.07,0.02,0.03,0.08
4.911,0.09,0.02,0.06,0.11
4.921,0.14,-0.01,0.07,0.15
4.932,0.16,-0.04,0.04,0.17
4.941,0.18,-0.05,0.07,0.20
4.952,0.17,-0.06,0.06,0.19
4.962,0.13,-0.07,0.10,0.18
4.972,0.10,-0.07,0.09,0.15
4.982,0.11,-0.06,0.11,0.17
4.992,0.10,-0.03,0.08,0.14
5.002,0.13,-0.00,0.05,0.14
5.012,0.12,0.01,0.04,0.12
5.022,0.09,-0.03,0.08,0.12
5.032,0.08,-0.06,0.09,0.13
5.042,0.08,-0.06,0.09,0.14
5.052,0.09,-0.04,0.10,0.14
5.062,0.08,-0.02,0.05,0.10
5.072,0.08,-0.00,0.02,0.09
5.082,0.11,0.01,0.04,0.12
5.092,0.12,-0.00,0.05,0.13
5.102,0.10,-0.06,0.01,0.12
5.113,0.06,-0.10,0.04,0.12
5.123,0.06,-0.10,0.07,0.14
5.133,0.06,-0.07,0.04,0.10
5.143,0.06,-0.05,0.04,0.10
5.153,0.05,-0.04,0.04,0.08
5.163,0.05,-0.03,0.07,0.09
5.173,0.08,-0.06,0.08,0.12
5.183,0.08,-0.05,0.08,0.12
5.193,0.10,-0.03,0.08,0.13
5.203,0.10,-0.03,0.07,0.13
5.213,0.11,0.00,0.05,0.12
5.223,0.09,0.00,0.04,0.10
5.233,0.06,-0.01,0.03,0.07
5.243,0.06,-0.03,0.02,0.07
5.254,0.05,-0.02,-0.05,0.07
5.263,0.02,-0.01,-0.07,0.07
5.274,-0.00,-0.01,-0.03,0.03
5.284,0.01,-0.01,-0.01,0.02
5.294,0.03,-0.03,0.02,0.05
5.304,0.04,-0.04,0.06,0.08
5.314,0.05,-0.03,0.05,0.08
5.324,0.09,-0.03,0.01,0.09
5.334,0.09,-0.03,0.01,0.09
5.344,0.07,-0.03,-0.00,0.07
5.354,0.06,-0.03,0.04,0.08
5.364,0.06,-0.07,0.05,0.10
5.374,0.04,-0.07,0.01,0.08
5.384,0.07,-0.02,-0.02,0.07
5.394,0.06,0.02,-0.06,0.09
5.404,0.05,0.05,-0.06,0.09
5.415,0.02,0.02,-0.04,0.05
5.424,-0.00,-0.01,-0.03,0.03
5.435,-0.03,-0.03,-0.01,0.04
5.445,0.04,-0.03,-0.01,0.05
5.455,0.08,-0.03,-0.03,0.09
5.465,0.08,-0.03,-0.02,0.09
5.475,0.09,-0.04,0.01,0.10
5.485,0.08,-0.02,0.01,0.09
5.495,0.06,0.00,0.01,0.06
5.505,0.05,0.02,0.02,0.06
5.515,0.05,-0.04,0.04,0.07
5.525,0.03,-0.06,0.01,0.07
5.535,0.05,-0.05,0.00,0.07
5.545,0.06,-0.05,-0.01,0.07
5.555,0.03,-0.03,-0.02,0.05
5.565,0.03,-0.01,-0.02,0.03
5.575,0.04,-0.00,-0.02,0.04
5.585,0.03,-0.01,-0.03,0.04
5.596,0.00,-0.01,-0.05,0.05
5.606,-0.01,-0.02,-0.05,0.06
5.616,-0.02,-0.01,-0.03,0.04
5.626,-0.02,-0.01,-0.00,0.02
5.636,-0.00,0.01,0.00,0.01
5.646,0.01,0.03,0.00,0.03
5.656,0.04,0.03,0.02,0.05
5.666,0.07,-0.00,0.05,0.09
5.676,0.10,-0.01,0.03,0.10
5.686,0.07,-0.06,0.01,0.09
5.696,0.05,-0.07,0.02,0.09
5.706,0.04,-0.07,0.03,0.08
5.716,0.06,-0.04,-0.01,0.07
5.726,0.04,-0.02,0.01,0.04
5.737,0.05,-0.02,0.04,0.06
5.747,0.03,-0.02,0.00,0.04
5.757,0.01,-0.02,-0.05,0.06
5.767,0.00,-0.03,-0.09,0.10
5.777,-0.01,-0.01,-0.07,0.07
5.787,0.01,0.00,-0.01,0.01
5.797,0.03,0.02,0.03,0.05
5.807,0.08,0.03,0.04,0.09
5.817,0.09,0.01,-0.01,0.09
5.827,0.05,-0.02,-0.03,0.06
5.837,0.01,-0.03,-0.05,0.06
5.847,-0.03,-0.03,-0.07,0.08
5.857,-0.04,-0.06,-0.07,0.10
5.867,-0.04,-0.06,-0.04,0.08
5.877,-0.04,-0.05,-0.02,0.07
5.887,-0.02,-0.02,-0.02,0.04
5.898,0.01,0.03,-0.02,0.04
5.907,0.04,0.02,-0.05,0.07
5.918,0.04,0.00,-0.06,0.07
5.928,0.04,-0.02,-0.04,0.06
5.938,0.04,-0.04,0.00,0.06
5.948,0.04,-0.07,0.01,0.08
5.958,0.06,-0.08,-0.02,0.10
5.968,0.03,-0.04,-0.05,0.08
5.978,-0.00,-0.03,-0.07,0.08
5.988,-0.04,-0.02,-0.10,0.11
5.998,-0.06,-0.01,-0.12,0.14
6.008,-0.09,-0.02,-0.11,0.14
6.018,-0.07,-0.02,-0.09,0.11
6.028,-0.04,-0.00,-0.08,0.09
6.038,-0.03,0.00,-0.08,0.08
6.048,0.00,0.02,-0.06,0.07
6.058,0.03,0.03,-0.06,0.07
6.068,0.07,0.03,-0.06,0.09
6.079,0.06,0.01,-0.04,0.07
6.089,0.01,-0.03,-0.03,0.05
6.099,-0.03,-0.06,-0.05,0.08
6.109,-0.05,-0.08,-0.05,0.10
6.119,-0.06,-0.04,-0.05,0.09
6.129,-0.06,-0.00,-0.07,0.09
6.139,-0.06,0.02,-0.05,0.08
6.149,-0.04,0.05,-0.07,0.10
6.159,0.02,0.05,-0.05,0.07
6.169,0.04,0.05,-0.03,0.07
6.179,0.05,0.03,-0.02,0.06
6.189,0.08,-0.02,-0.02,0.08
6.199,0.10,-0.06,0.01,0.12
6.209,0.11,-0.08,0.00,0.13
6.220,0.11,-0.05,-0.01,0.12
6.230,0.07,-0.01,-0.01,0.07
6.240,0.05,0.01,-0.02,0.06
6.250,0.05,0.03,-0.08,0.10
6.260,0.03,0.03,-0.09,0.10
6.270,0.03,-0.03,-0.05,0.07
6.280,0.00,-0.09,-0.01,0.09
6.290,0.04,-0.07,0.02,0.08
6.300,0.07,-0.01,0.04,0.08
6.310,0.07,0.01,0.04,0.08
6.320,0.05,-0.02,0.03,0.06
6.330,0.05,-0.06,0.02,0.08
6.340,0.04,-0.07,-0.01,0.08
6.350,0.06,-0.06,-0.05,0.10
6.360,0.05,-0.03,-0.04,0.07
6.370,0.05,0.00,-0.03,0.06
6.381,0.03,0.02,-0.02,0.04
6.391,-0.01,0.04,-0.04,0.05
6.401,-0.02,0.05,-0.02,0.06
6.411,-0.01,0.05,-0.01,0.05
6.421,0.01,0.02,-0.02,0.03
6.431,0.04,-0.00,0.01,0.04
6.441,0.07,-0.05,0.04,0.10
6.451,0.09,-0.07,0.05,0.12
6.461,0.11,-0.10,0.06,0.16
6.471,0.12,-0.10,0.06,0.16
6.481,0.11,-0.09,0.06,0.16
6.491,0.11,-0.06,0.07,0.14
6.501,0.13,-0.04,0.04,0.14
6.511,0.09,-0.03,0.03,0.10
6.521,0.03,-0.06,0.04,0.08
6.531,-0.01,-0.07,0.05,0.08
6.542,0.01,-0.06,0.04,0.07
6.552,0.02,-0.01,-0.00,0.02
6.562,0.04,0.03,-0.06,0.08
6.572,0.07,0.05,-0.08,0.12
6.582,0.03,0.04,-0.09,0.10
6.592,0.01,-0.01,-0.08,0.08
6.602,0.01,-0.04,-0.07,0.08
6.612,0.02,-0.03,-0.06,0.07
6.622,0.03,0.00,-0.06,0.07
6.632,0.02,-0.01,-0.02,0.02
6.642,0.03,-0.01,0.04,0.05
6.652,0.01,-0.04,0.03,0.06
6.662,0.02,-0.07,-0.00,0.08
6.672,0.06,-0.04,-0.02,0.07
6.682,0.07,-0.00,-0.01,0.08
6.692,0.09,-0.00,0.02,0.10
6.703,0.08,-0.02,0.04,0.09
6.712,0.07,-0.04,0.07,0.11
6.723,0.08,-0.07,0.05,0.12
6.733,0.08,-0.06,0.01,0.10
6.743,0.08,-0.02,-0.01,0.08
6.753,0.09,0.01,-0.03,0.10
6.763,0.08,0.03,-0.03,0.09
6.773,0.04,0.01,-0.04,0.06
6.783,-0.01,-0.01,-0.03,0.04
6.793,-0.03,-0.02,-0.03,0.05
6.803,-0.03,-0.03,-0.02,0.05
6.813,0.01,-0.02,0.01,0.02
6.823,0.08,0.01,-0.01,0.08
6.833,0.11,0.05,-0.05,0.12
6.843,0.11,0.04,-0.06,0.13
6.853,0.09,-0.01,-0.04,0.10
6.863,0.06,-0.08,-0.04,0.11
6.874,0.03,-0.09,-0.04,0.11
6.884,0.00,-0.06,0.00,0.06
6.894,0.01,-0.05,0.04,0.06
6.904,0.02,-0.03,0.00,0.03
6.914,0.04,0.02,-0.02,0.05
6.924,0.06,0.03,-0.05,0.08
6.934,0.07,0.03,-0.08,0.10
6.944,0.01,-0.01,-0.05,0.05
6.954,-0.01,-0.01,-0.00,0.02
6.964,0.01,-0.03,0.01,0.03
6.974,0.04,0.01,0.03,0.05
6.984,0.08,0.03,0.01,0.09
6.994,0.10,0.03,-0.03,0.11
7.004,0.08,-0.02,-0.04,0.09
7.014,0.05,-0.08,-0.03,0.10
7.025,0.02,-0.06,-0.03,0.07
7.035,0.01,-0.05,-0.03,0.06
7.045,0.02,-0.02,-0.04,0.04
7.055,0.01,-0.01,-0.04,0.04
7.065,-0.02,-0.02,-0.05,0.05
7.075,-0.02,-0.01,-0.06,0.07
7.085,-0.02,-0.01,-0.08,0.08
7.095,-0.04,-0.01,-0.07,0.08
7.105,-0.02,-0.02,-0.03,0.05
7.115,0.01,-0.00,-0.05,0.05
7.125,0.01,-0.01,-0.07,0.07
7.135,0.01,-0.03,-0.11,0.11
7.145,-0.01,-0.04,-0.12,0.13
7.155,-0.04,-0.02,-0.14,0.15
7.166,-0.10,0.01,-0.15,0.18
7.175,-0.10,0.06,-0.09,0.14
7.186,-0.02,0.05,-0.01,0.06
7.195,0.00,-0.01,0.02,0.02
7.206,-0.01,-0.07,-0.01,0.07
7.216,-0.01,-0.05,-0.09,0.10
7.226,-0.02,-0.03,-0.11,0.12
7.236,-0.06,-0.03,-0.13,0.15
7.246,-0.10,-0.05,-0.15,0.19
7.256,-0.13,-0.07,-0.15,0.21
7.266,-0.18,-0.07,-0.17,0.26
7.276,-0.20,-0.02,-0.18,0.27
7.286,-0.16,0.04,-0.14,0.22
7.296,-0.12,0.03,-0.16,0.20
7.306,-0.06,0.02,-0.19,0.20
7.316,-0.05,0.01,-0.22,0.22
7.326,-0.06,-0.01,-0.20,0.21
7.336,-0.10,-0.06,-0.20,0.23
7.346,-0.14,-0.10,-0.18,0.25
7.356,-0.16,-0.13,-0.14,0.25
7.367,-0.18,-0.12,-0.18,0.28
7.377,-0.18,-0.06,-0.20,0.28
7.387,-0.21,-0.03,-0.21,0.29
7.397,-0.21,-0.01,-0.20,0.29
7.407,-0.19,-0.04,-0.23,0.30
7.417,-0.16,-0.12,-0.19,0.27
7.427,-0.16,-0.17,-0.10,0.25
7.437,-0.16,-0.20,-0.16,0.30
7.447,-0.14,-0.18,-0.19,0.30
7.457,-0.10,-0.11,-0.23,0.27
7.467,-0.12,-0.04,-0.21,0.24
7.477,-0.18,-0.01,-0.21,0.27
7.487,-0.23,-0.04,-0.23,0.33
7.497,-0.28,-0.10,-0.23,0.38
7.508,-0.26,-0.13,-0.18,0.34
7.517,-0.21,-0.14,-0.15,0.30
7.528,-0.16,-0.16,-0.15,0.27
7.538,-0.12,-0.16,-0.17,0.27
7.548,-0.13,-0.17,-0.20,0.29
7.558,-0.13,-0.20,-0.23,0.33
7.568,-0.12,-0.23,-0.22,0.34
7.578,-0.10,-0.24,-0.22,0.34
7.588,-0.07,-0.25,-0.27,0.37
7.598,-0.04,-0.25,-0.29,0.39
7.608,-0.04,-0.28,-0.33,0.43
7.618,-0.08,-0.30,-0.34,0.46
7.628,-0.12,-0.33,-0.37,0.51
7.638,-0.14,-0.40,-0.33,0.54
7.648,-0.11,-0.46,-0.27,0.54
7.658,-0.08,-0.56,-0.22,0.61
7.669,0.02,-0.61,-0.16,0.63
7.678,0.13,-0.62,-0.17,0.66
7.689,0.11,-0.62,-0.31,0.70
7.699,-0.02,-0.66,-0.35,0.75
7.709,-0.09,-0.67,-0.23,0.71
7.719,-0.06,-0.69,-0.13,0.71
7.729,0.05,-0.67,-0.09,0.68
7.739,0.17,-0.63,-0.11,0.66
7.749,0.20,-0.68,-0.16,0.73
7.759,0.20,-0.72,-0.23,0.78
7.769,0.15,-0.66,-0.28,0.73
7.779,0.07,-0.53,-0.27,0.60
7.789,-0.05,-0.46,-0.28,0.54
7.799,-0.16,-0.46,-0.18,0.52
7.810,-0.23,-0.43,-0.06,0.49
7.820,-0.31,-0.27,-0.09,0.42
7.830,-0.43,-0.15,-0.15,0.48
7.839,-0.56,-0.14,-0.19,0.61
7.850,-0.61,-0.23,-0.11,0.66
7.860,-0.63,-0.42,-0.09,0.76
7.870,-0.51,-0.73,-0.04,0.89
7.880,-0.35,-1.00,0.03,1.06
7.890,-0.14,-1.16,0.14,1.17
7.900,0.12,-1.20,0.19,1.22
7.910,0.43,-1.01,0.18,1.11
7.920,0.64,-0.76,0.15,1.01
7.930,0.73,-0.52,0.05,0.90
7.940,0.65,-0.40,-0.07,0.77
7.950,0.45,-0.36,0.00,0.58
7.960,0.26,-0.36,0.07,0.45
7.970,0.13,-0.45,0.04,0.47
7.980,0.08,-0.56,0.22,0.61
7.991,0.08,-0.63,0.22,0.67
8.001,0.16,-0.62,0.18,0.67
8.011,0.26,-0.57,0.21,0.66
8.021,0.30,-0.54,0.32,0.70
8.031,0.37,-0.53,0.35,0.74
8.041,0.51,-0.45,0.29,0.74
8.051,0.68,-0.45,0.24,0.85
8.061,0.80,-0.58,0.24,1.02
8.071,0.78,-0.73,0.19,1.08
8.081,0.60,-0.82,0.07,1.02
8.091,0.47,-0.79,0.16,0.93
8.101,0.41,-0.71,0.22,0.85
8.111,0.38,-0.64,0.26,0.79
8.121,0.40,-0.55,0.38,0.78
8.131,0.49,-0.49,0.36,0.78
8.141,0.61,-0.63,0.32,0.93
8.151,0.75,-0.82,0.29,1.15
8.161,0.79,-0.89,0.17,1.20
8.172,0.76,-0.78,0.11,1.10
8.182,0.71,-0.50,0.05,0.87
8.192,0.60,-0.17,0.10,0.63
8.202,0.46,-0.05,0.21,0.51
8.212,0.28,-0.17,0.26,0.42
8.222,0.16,-0.40,0.27,0.51
8.232,0.14,-0.74,0.26,0.79
8.242,0.05,-0.99,0.07,0.99
8.252,-0.05,-1.01,-0.17,1.03
8.262,0.10,-0.75,-0.13,0.77
8.272,0.17,-0.35,-0.10,0.40
8.282,0.21,-0.10,-0.05,0.24
8.292,0.30,0.05,-0.03,0.31
8.302,0.31,0.18,-0.08,0.37
8.312,0.34,0.20,0.16,0.43
8.322,0.44,-0.03,0.25,0.51
8.333,0.39,-0.29,-0.03,0.49
8.343,0.20,-0.41,-0.24,0.51
8.353,0.01,-0.34,-0.27,0.43
8.363,-0.21,-0.19,-0.13,0.32
8.373,-0.40,-0.03,-0.14,0.42
8.383,-0.50,0.15,-0.19,0.56
8.393,-0.50,0.22,-0.17,0.57
8.403,-0.40,0.08,0.02,0.41
8.413,-0.33,-0.16,-0.04,0.37
8.423,-0.26,-0.23,-0.20,0.40
8.433,-0.07,-0.09,-0.17,0.21
8.443,0.13,0.00,-0.13,0.19
8.453,0.28,0.04,-0.12,0.31
8.463,0.25,0.01,-0.23,0.35
8.474,0.30,0.06,-0.14,0.34
8.483,0.36,0.16,-0.02,0.40
8.494,0.41,0.14,0.01,0.43
8.503,0.34,0.15,-0.26,0.45
8.514,0.23,0.28,-0.44,0.57
8.524,0.19,0.32,-0.46,0.59
8.534,0.06,0.20,-0.48,0.52
8.544,-0.27,0.01,-0.58,0.63
8.554,-0.58,-0.16,-0.53,0.80
8.564,-0.68,-0.42,-0.34,0.87
8.574,-0.69,-0.73,-0.19,1.02
8.584,-0.63,-0.90,-0.10,1.10
8.594,-0.47,-0.87,-0.12,1.00
8.604,-0.17,-0.77,0.02,0.79
8.614,0.20,-0.45,0.02,0.49
8.624,0.47,0.13,-0.20,0.53
8.634,0.52,0.48,-0.54,0.89
8.644,0.37,0.46,-0.71,0.92
8.654,0.17,0.23,-0.62,0.69
8.665,-0.12,0.11,-0.64,0.66
8.675,-0.38,0.16,-0.47,0.63
8.685,-0.52,0.16,-0.40,0.67
8.695,-0.54,0.17,-0.36,0.67
8.705,-0.46,0.14,-0.44,0.65
8.715,-0.43,0.27,-0.63,0.81
8.725,-0.51,0.36,-0.74,0.96
8.735,-0.67,0.66,-0.79,1.23
8.745,-0.79,1.05,-0.84,1.56
8.755,-0.92,1.27,-0.96,1.84
8.765,-1.01,1.28,-0.97,1.89
8.775,-0.92,0.83,-0.80,1.47
8.785,-0.78,0.31,-0.75,1.13
8.795,-0.82,0.17,-0.63,1.05
8.805,-0.94,0.32,-0.56,1.14
8.816,-1.23,0.49,-0.70,1.50
8.825,-1.49,0.53,-0.80,1.77
8.836,-1.53,0.49,-1.01,1.89
8.846,-1.33,0.20,-1.10,1.74
8.856,-1.04,0.05,-1.33,1.68
8.866,-0.62,0.26,-1.28,1.44
8.876,-0.22,0.47,-1.05,1.17
8.886,-0.37,0.65,-0.96,1.22
8.896,-0.82,1.33,-0.85,1.78
8.906,-1.17,2.79,-0.71,3.11
8.916,-1.55,4.47,-0.30,4.74
8.926,-2.16,6.29,0.46,6.67
8.936,-2.46,7.41,0.57,7.82
8.946,-2.32,6.57,1.15,7.06
8.956,-1.69,4.57,2.25,5.36
8.966,-0.64,2.32,2.49,3.47
8.977,0.43,0.25,2.05,2.11
8.987,1.34,-1.30,1.32,2.29
8.997,1.89,-2.22,0.48,2.95
9.007,1.84,-2.85,-0.05,3.39
9.017,1.52,-3.07,-0.11,3.43
9.027,1.24,-2.70,-0.04,2.97
9.037,1.05,-1.99,0.17,2.26
9.047,0.82,-1.46,0.91,1.91
9.057,0.65,-1.24,1.74,2.23
9.067,0.56,-1.23,2.08,2.48
9.077,0.48,-1.04,2.06,2.35
9.087,0.49,-0.68,1.95,2.12
9.097,0.53,-0.38,1.74,1.86
9.107,0.50,-0.21,1.56,1.66
9.117,0.38,-0.10,1.49,1.54
9.127,0.38,0.10,1.44,1.49
9.137,0.51,0.23,1.45,1.55
9.148,0.59,0.09,1.55,1.66
9.158,0.65,-0.18,1.57,1.70
9.168,0.73,-0.47,1.38,1.63
9.178,0.80,-0.69,1.09,1.52
9.188,0.95,-0.80,0.87,1.51
9.198,1.10,-0.81,0.68,1.53
9.208,1.21,-0.67,0.54,1.49
9.218,1.20,-0.49,0.46,1.37
9.228,1.22,-0.33,0.40,1.32
9.238,1.28,-0.22,0.29,1.33
9.248,1.31,-0.22,0.36,1.37
9.258,1.39,-0.24,0.53,1.50
9.268,1.44,-0.23,0.57,1.56
9.278,1.30,-0.22,0.48,1.40
9.288,1.07,-0.19,0.22,1.11
9.299,0.76,-0.15,-0.06,0.78
9.308,0.35,-0.12,-0.08,0.38
9.319,0.09,-0.10,0.08,0.15
9.328,0.04,-0.04,0.16,0.17
9.339,0.13,0.05,0.16,0.21
9.349,0.20,0.07,0.15,0.26
9.359,0.26,0.11,0.06,0.29
9.369,0.27,0.14,-0.10,0.32
9.379,0.24,0.13,-0.31,0.41
9.389,0.06,0.06,-0.35,0.37
9.399,-0.10,-0.02,-0.08,0.13
9.409,-0.15,-0.02,0.12,0.19
9.419,-0.05,-0.05,0.07,0.10
9.429,0.00,-0.05,-0.03,0.05
9.439,-0.03,-0.04,0.01,0.05
9.449,-0.09,-0.00,0.11,0.14
9.460,-0.12,0.01,0.18,0.22
9.469,-0.11,0.02,0.07,0.13
9.480,-0.04,0.03,-0.16,0.16
9.490,0.02,0.04,-0.26,0.27
9.500,-0.01,0.04,-0.23,0.23
9.510,-0.08,0.05,-0.08,0.12
9.520,-0.11,0.04,-0.02,0.12
9.530,-0.14,0.01,0.02,0.14
9.540,-0.15,0.01,-0.00,0.15
9.550,-0.04,0.07,-0.12,0.14
9.560,0.05,0.09,-0.14,0.17
9.570,0.04,0.05,-0.12,0.14
9.580,0.00,0.03,-0.07,0.08
9.590,0.02,0.04,-0.12,0.13
9.600,0.08,0.03,-0.11,0.14
9.610,0.16,0.02,-0.07,0.18
9.620,0.25,-0.02,0.09,0.26
9.630,0.32,-0.10,0.27,0.43
9.641,0.33,-0.19,0.39,0.54
9.651,0.29,-0.25,0.31,0.50
9.661,0.26,-0.26,0.23,0.43
9.671,0.22,-0.26,0.21,0.40
9.681,0.23,-0.21,0.23,0.39
9.691,0.29,-0.16,0.23,0.40
9.701,0.31,-0.08,0.19,0.37
9.711,0.29,-0.02,0.05,0.29
9.721,0.20,0.03,0.01,0.20
9.731,0.11,0.03,0.09,0.15
9.741,0.07,0.01,0.19,0.20
9.751,0.06,-0.02,0.24,0.24
9.761,0.06,-0.03,0.16,0.18
9.771,0.11,-0.02,0.03,0.12
9.781,0.10,-0.02,-0.10,0.14
9.791,0.03,-0.01,-0.13,0.14
9.802,-0.00,-0.00,-0.08,0.08
9.811,0.02,0.05,-0.16,0.17
9.822,0.01,0.10,-0.22,0.24
9.832,-0.06,0.12,-0.19,0.24
9.842,-0.06,0.13,-0.19,0.23
9.852,-0.06,0.13,-0.19,0.24
9.862,-0.03,0.11,-0.19,0.23
9.872,0.04,0.10,-0.14,0.18
9.882,0.11,0.10,-0.12,0.19
9.892,0.17,0.06,-0.10,0.21
9.902,0.22,0.04,-0.09,0.24
9.912,0.22,0.06,-0.10,0.25
9.922,0.17,0.08,-0.15,0.24
9.932,0.08,0.12,-0.23,0.27
9.943,-0.04,0.13,-0.22,0.26
9.952,-0.18,0.10,-0.15,0.25
9.963,-0.28,0.06,-0.11,0.30
9.973,-0.28,0.05,-0.09,0.30
9.983,-0.22,0.03,-0.06,0.23
9.993,-0.17,0.01,0.03,0.18
10.003,-0.15,-0.01,0.11,0.19
10.013,-0.11,-0.01,0.12,0.16
10.023,-0.12,0.02,0.06,0.13
10.033,-0.12,0.03,0.01,0.12
10.043,-0.11,0.02,0.00,0.11
10.053,-0.08,0.01,0.03,0.09
10.063,-0.04,-0.03,0.10,0.11
10.073,-0.01,-0.08,0.19,0.21
10.083,0.04,-0.08,0.18,0.20
10.093,0.05,-0.06,0.12,0.14
10.103,0.07,-0.04,0.06,0.10
10.113,0.04,-0.05,0.02,0.07
10.124,-0.01,-0.02,0.01,0.02
10.134,-0.06,-0.01,-0.01,0.06
10.144,-0.05,-0.01,-0.05,0.07
10.154,0.03,-0.02,-0.11,0.12
10.164,0.06,-0.05,-0.08,0.11
10.174,0.08,-0.10,0.07,0.15
10.184,0.10,-0.10,0.16,0.22
10.194,0.09,-0.05,0.10,0.14
10.204,0.06,-0.03,0.02,0.07
10.214,0.06,0.04,-0.06,0.09
10.224,0.02,0.06,-0.10,0.12
10.234,-0.00,0.07,-0.10,0.12
10.244,0.01,0.10,-0.16,0.19
10.254,-0.03,0.07,-0.16,0.18
10.264,-0.04,0.07,-0.15,0.17
10.274,-0.02,0.04,-0.18,0.19
10.285,-0.01,-0.01,-0.18,0.18
10.294,0.02,-0.01,-0.13,0.13
10.305,0.03,-0.00,-0.05,0.06
10.315,0.04,0.02,-0.03,0.06
10.325,0.05,0.02,-0.03,0.06
10.335,0.02,0.02,0.01,0.03
10.345,0.03,0.01,0.03,0.04
10.355,0.06,-0.02,0.06,0.08
10.365,0.06,-0.03,0.03,0.08
10.375,0.06,-0.03,0.01,0.07
10.385,0.07,-0.04,0.02,0.08
10.395,0.05,-0.02,-0.00,0.06
10.405,0.04,-0.00,-0.04,0.05
10.415,0.01,-0.01,-0.04,0.04
10.425,0.02,-0.00,-0.01,0.02
10.435,0.01,-0.01,0.01,0.02
10.445,0.02,-0.01,0.00,0.03
10.455,0.04,-0.01,-0.01,0.04
10.466,0.04,-0.01,0.04,0.06
10.476,0.07,0.00,0.05,0.08
10.486,0.06,-0.02,0.03,0.07
10.496,0.06,-0.02,0.03,0.07
10.506,0.06,-0.04,0.02,0.07
10.516,0.05,-0.03,0.02,0.06
10.526,0.07,-0.01,-0.00,0.07
10.536,0.08,-0.01,-0.02,0.08
10.546,0.08,-0.02,-0.01,0.08
10.556,0.04,-0.04,-0.02,0.06
10.566,0.02,-0.01,0.02,0.03
10.576,0.03,-0.01,0.09,0.09
10.586,0.07,0.01,0.07,0.11
10.596,0.10,0.02,0.03,0.11
10.606,0.10,-0.02,0.06,0.12
10.616,0.10,-0.05,0.09,0.15
10.627,0.09,-0.09,0.09,0.16
10.636,0.10,-0.11,0.07,0.16
10.647,0.08,-0.08,0.05,0.13
10.657,0.09,-0.03,0.02,0.09
10.667,0.08,-0.01,0.00,0.08
10.677,0.10,-0.00,-0.02,0.10
10.687,0.09,-0.02,0.02,0.10
10.697,0.10,-0.04,0.05,0.12
10.707,0.10,-0.05,0.08,0.14
10.717,0.09,-0.04,0.10,0.13
10.727,0.04,-0.05,0.07,0.09
10.737,0.02,-0.02,0.07,0.07
10.747,0.01,-0.02,0.07,0.07
10.757,0.02,0.01,0.04,0.05
10.767,0.03,0.04,0.02,0.05
10.777,0.00,0.04,0.00,0.04
10.788,0.01,0.05,-0.05,0.07
10.797,0.01,0.03,-0.08,0.09
10.808,0.01,0.02,-0.07,0.07
10.818,0.01,-0.01,-0.05,0.06
10.828,0.02,-0.05,0.01,0.06
10.838,0.00,-0.07,0.06,0.09
10.848,0.01,-0.05,0.03,0.06
10.858,0.00,-0.01,0.01,0.02
10.868,0.00,0.02,0.01,0.02
10.878,0.00,0.02,0.01,0.02
10.888,0.01,-0.00,0.03,0.03
10.898,0.06,-0.01,0.00,0.06
10.908,0.08,-0.01,-0.00,0.09
10.918,0.06,-0.02,-0.02,0.07
10.928,0.04,-0.01,-0.01,0.05
10.938,0.01,-0.01,-0.00,0.02
10.949,-0.00,-0.01,0.02,0.03
10.958,0.00,-0.01,0.03,0.03
10.969,0.03,-0.01,-0.02,0.04
10.979,0.03,-0.01,-0.04,0.05
10.989,0.04,-0.01,-0.02,0.05
10.999,0.06,-0.00,-0.00,0.06
11.009,0.07,0.00,0.01,0.07
11.019,0.07,-0.00,0.00,0.07
11.029,0.06,0.01,-0.02,0.06
11.039,0.03,0.01,-0.07,0.07
11.049,0.01,-0.01,-0.07,0.07
11.059,0.03,-0.03,-0.05,0.06
11.069,0.03,-0.02,-0.03,0.04
11.079,0.04,-0.01,-0.03,0.05
11.089,0.02,-0.00,-0.02,0.03
11.099,0.02,0.02,-0.02,0.03
11.110,0.01,0.04,-0.05,0.06
11.120,0.03,0.09,-0.05,0.10
11.130,0.07,0.08,-0.06,0.12
11.140,0.04,0.04,-0.02,0.06
11.150,0.02,0.00,0.04,0.05
11.160,0.01,-0.05,0.10,0.11
11.170,-0.00,-0.07,0.11,0.13
11.180,-0.01,-0.09,0.06,0.11
11.190,-0.01,-0.08,0.01,0.08
11.200,0.00,-0.05,-0.05,0.07
11.210,-0.01,-0.01,-0.06,0.07
11.220,0.02,-0.00,-0.02,0.03
11.230,0.07,-0.00,0.02,0.07
11.240,0.10,-0.02,0.06,0.12
11.250,0.08,-0.03,0.09,0.12
11.260,0.07,-0.05,0.09,0.12
11.270,0.05,-0.04,0.08,0.10
11.280,0.02,-0.05,0.10,0.12
11.291,0.03,-0.06,0.10,0.12
11.301,0.01,-0.04,0.07,0.08
11.311,0.02,-0.02,0.01,0.03
11.321,0.01,-0.01,-0.03,0.03
11.331,0.01,0.01,-0.01,0.02
11.341,0.04,0.01,0.01,0.04
11.351,0.05,-0.01,0.02,0.06
11.361,0.07,-0.05,0.02,0.09
11.371,0.07,-0.05,0.03,0.09
11.381,0.08,-0.03,0.03,0.09
11.391,0.06,0.02,-0.03,0.07
11.401,0.01,0.02,-0.07,0.08
11.411,-0.06,0.02,-0.06,0.09
11.421,-0.09,0.01,-0.01,0.09
11.431,-0.07,-0.02,0.05,0.08
11.441,-0.01,-0.03,0.05,0.06
11.451,0.05,0.00,0.03,0.05
11.461,0.08,0.02,-0.01,0.08
11.472,0.08,0.04,-0.05,0.10
11.482,0.07,0.02,-0.07,0.10
11.492,0.04,-0.01,-0.06,0.07
11.502,0.02,-0.02,-0.06,0.07
11.512,0.01,-0.02,-0.04,0.04
11.522,0.03,-0.02,-0.03,0.05
11.532,0.02,0.01,-0.06,0.07
11.542,-0.00,0.01,-0.06,0.06
11.552,-0.03,0.01,-0.02,0.04
11.562,-0.03,0.01,-0.01,0.03
11.572,-0.03,0.00,0.05,0.06
11.582,0.01,0.00,0.07,0.07
11.592,0.03,0.02,0.05,0.06
11.602,0.04,0.02,0.01,0.05
11.613,0.05,0.00,0.01,0.05
11.623,0.07,-0.02,0.01,0.07
11.633,0.06,-0.03,0.03,0.07
11.643,0.04,-0.02,0.04,0.06
11.653,0.01,-0.05,0.01,0.05
11.663,0.02,-0.07,0.03,0.08
11.673,0.07,-0.05,0.05,0.10
11.683,0.08,-0.03,0.04,0.09
11.693,0.05,0.00,0.00,0.05
11.703,0.03,0.01,-0.03,0.04
11.713,-0.00,-0.00,-0.01,0.01
11.723,-0.02,0.02,0.03,0.04
11.733,0.02,0.02,0.07,0.08
11.743,0.06,0.02,0.09,0.11
11.754,0.08,0.00,0.07,0.11
11.763,0.10,-0.01,0.05,0.12
11.774,0.08,-0.05,0.05,0.11
11.784,0.07,-0.08,0.06,0.13
11.794,0.07,-0.10,0.04,0.13
11.804,0.06,-0.07,0.01,0.09
11.814,0.03,-0.02,-0.02,0.04
11.824,0.01,0.03,-0.04,0.05
11.834,-0.02,0.01,-0.02,0.03
11.844,-0.02,-0.02,0.03,0.04
11.854,-0.01,-0.03,0.06,0.07
11.864,-0.00,-0.04,0.07,0.08
11.874,0.00,-0.02,0.09,0.09
11.884,-0.00,-0.02,0.03,0.04
11.894,-0.01,-0.00,0.00,0.01
11.904,-0.01,0.01,-0.02,0.03
11.914,0.01,0.02,-0.03,0.04
11.924,0.03,0.05,-0.07,0.09
11.934,0.05,0.05,-0.11,0.13
11.944,0.04,0.05,-0.11,0.13
11.955,0.02,0.02,-0.08,0.08
11.965,0.02,0.00,-0.03,0.04
11.975,-0.01,-0.02,0.02,0.02
11.985,0.01,-0.01,-0.01,0.02
11.995,0.01,-0.01,-0.04,0.05
12.005,0.03,-0.02,-0.04,0.05
12.015,0.03,-0.03,-0.01,0.04
12.025,0.05,-0.01,0.01,0.05
12.035,0.05,0.00,0.00,0.05
12.045,0.06,-0.01,0.01,0.06
12.055,0.05,-0.00,0.03,0.06
12.065,0.03,0.00,0.05,0.06
12.075,0.03,0.01,0.03,0.04
12.085,0.02,0.01,0.01,0.03
12.095,0.00,-0.01,0.03,0.03
12.105,-0.00,-0.04,0.01,0.04
12.116,0.00,-0.05,0.03,0.06
12.125,0.01,-0.03,0.03,0.04
12.136,0.01,-0.01,-0.02,0.02
12.146,0.01,0.01,-0.04,0.05
12.156,0.01,0.02,-0.00,0.02
12.166,0.00,0.02,-0.01,0.02
12.176,0.02,-0.00,0.00,0.02
12.186,0.02,-0.01,0.00,0.03
12.196,0.03,-0.01,-0.03,0.05
12.206,0.04,-0.01,-0.04,0.06
12.216,0.02,-0.00,-0.02,0.03
12.226,0.01,-0.01,-0.01,0.02
12.236,-0.00,-0.03,0.05,0.06
12.246,0.02,-0.03,0.09,0.10
12.256,0.04,-0.02,0.11,0.12
12.266,0.06,-0.01,0.09,0.11
12.277,0.08,0.00,0.06,0.10
12.286,0.06,0.00,0.05,0.07
12.297,0.03,-0.02,0.02,0.04
12.307,0.04,-0.04,0.03,0.06
12.317,0.04,-0.05,0.03,0.07
12.327,0.05,-0.06,0.01,0.08
12.337,0.06,-0.03,0.01,0.07
12.347,0.03,-0.02,0.02,0.04
12.357,0.02,-0.00,-0.01,0.02
12.367,0.02,0.01,0.02,0.03
12.377,0.02,0.01,0.02,0.03
12.387,0.03,0.03,-0.02,0.05
12.397,0.01,0.03,-0.02,0.04
12.407,-0.01,0.02,-0.02,0.03
12.417,0.02,0.04,-0.02,0.05
12.427,0.04,0.03,-0.01,0.05
12.438,0.05,0.02,-0.01,0.05
12.447,0.06,-0.03,0.03,0.07
12.458,0.05,-0.07,0.10,0.13
12.468,0.05,-0.10,0.09,0.15
12.478,0.04,-0.07,0.05,0.09
12.488,0.02,-0.01,-0.02,0.03
12.498,-0.03,0.02,-0.05,0.07
12.508,-0.06,0.02,-0.03,0.07
12.518,-0.05,0.02,0.03,0.06
12.528,-0.03,0.01,0.06,0.07
12.538,0.01,0.00,0.09,0.09
12.548,0.03,-0.01,0.07,0.08
12.558,0.04,-0.02,0.01,0.05
12.568,0.02,-0.03,-0.01,0.03
12.578,-0.01,-0.02,-0.02,0.03
12.588,-0.02,-0.04,-0.00,0.04
12.598,0.02,-0.05,0.08,0.09
12.608,0.08,-0.05,0.06,0.11
12.619,0.13,-0.02,-0.01,0.13
12.628,0.10,-0.02,-0.05,0.12
12.639,0.09,-0.04,-0.05,0.11
12.649,0.05,-0.01,-0.04,0.06
12.659,0.01,-0.02,0.01,0.02
12.669,-0.01,-0.01,0.05,0.05
12.679,-0.01,-0.01,0.08,0.08
12.689,-0.01,-0.02,0.06,0.07
12.699,0.01,-0.01,0.07,0.07
12.709,0.03,0.01,0.07,0.08
12.719,0.04,-0.01,0.03,0.06
12.729,0.03,-0.02,0.01,0.04
12.739,0.01,-0.01,-0.01,0.02
12.749,0.01,0.01,-0.04,0.05
12.759,0.02,0.02,-0.05,0.06
12.769,0.02,0.01,-0.04,0.05
12.780,0.04,-0.02,-0.03,0.05
12.790,0.03,-0.02,-0.02,0.04
12.800,0.02,0.02,-0.02,0.03
12.810,0.01,0.03,-0.03,0.04
12.820,-0.03,0.02,-0.03,0.04
12.830,-0.05,0.01,-0.02,0.05
12.840,-0.02,-0.00,0.00,0.03
12.850,-0.00,-0.02,-0.00,0.02
12.860,0.03,-0.02,-0.04,0.05
12.870,0.03,-0.01,-0.06,0.06
12.880,0.01,-0.01,-0.04,0.04
12.890,0.00,-0.02,-0.01,0.03
12.900,0.01,-0.01,0.01,0.02
12.910,0.03,-0.01,0.06,0.07
12.920,0.04,0.01,0.07,0.08
12.930,0.04,0.00,0.03,0.05
12.941,0.04,0.01,0.02,0.05
12.951,0.04,0.00,0.01,0.04
12.961,0.04,-0.04,0.02,0.05
12.971,0.04,-0.03,0.01,0.05
12.981,0.05,-0.03,0.01,0.06
12.991,0.05,-0.03,0.02,0.06
13.001,0.05,-0.02,0.01,0.05
13.011,0.01,-0.03,-0.00,0.03
13.021,0.01,-0.02,-0.01,0.02
13.031,0.00,-0.00,-0.04,0.04
13.041,0.00,0.02,-0.06,0.06
13.051,-0.00,0.02,-0.04,0.05
13.061,-0.02,0.00,-0.01,0.02
13.071,-0.01,-0.01,0.02,0.03
13.081,-0.00,-0.02,0.03,0.03
13.091,0.03,0.04,0.06,0.07
13.101,0.06,0.04,0.02,0.07
13.111,0.04,0.05,-0.03,0.07
13.122,-0.01,0.03,-0.06,0.07
13.132,-0.03,-0.01,-0.01,0.03
13.142,-0.04,-0.07,0.05,0.09
13.152,-0.00,-0.11,0.04,0.11
13.162,0.04,-0.06,0.06,0.09
13.172,0.03,-0.02,0.03,0.05
13.182,0.05,-0.00,0.02,0.05
13.192,0.06,0.00,0.04,0.07
13.202,0.05,-0.00,0.03,0.06
13.212,0.04,-0.00,0.00,0.04
13.222,0.02,-0.01,0.02,0.03
13.232,0.02,-0.05,0.04,0.07
13.242,0.01,-0.05,0.06,0.08
13.252,0.01,-0.03,0.07,0.07
13.262,-0.01,-0.03,0.07,0.07
13.272,-0.03,-0.02,0.08,0.09
13.283,0.00,0.01,0.03,0.03
13.292,0.03,0.01,-0.01,0.03
13.303,0.02,0.03,-0.06,0.07
13.313,0.01,0.05,-0.10,0.11
13.323,-0.02,0.04,-0.08,0.09
13.333,-0.05,0.00,-0.04,0.06
13.343,-0.03,-0.03,0.02,0.04
13.353,0.02,-0.07,0.05,0.09
13.363,0.07,-0.06,0.05,0.11
13.373,0.10,-0.05,0.04,0.12
13.383,0.10,-0.04,0.06,0.12
13.393,0.08,-0.01,0.04,0.09
13.403,0.07,-0.01,0.02,0.08
13.413,0.04,-0.01,0.03,0.05
13.423,0.03,-0.04,0.05,0.07
13.433,0.03,-0.04,0.04,0.06
13.444,0.04,-0.01,0.03,0.05
13.454,0.03,-0.01,0.02,0.04
13.464,0.00,-0.00,0.00,0.01
13.474,-0.01,0.00,-0.00,0.01
13.484,-0.02,0.01,0.00,0.03
13.494,-0.01,0.00,0.02,0.02
13.504,0.01,-0.00,-0.01,0.02
13.514,0.02,0.01,-0.02,0.03
13.524,0.03,0.00,-0.03,0.04
13.534,0.01,0.01,-0.02,0.03
13.544,-0.01,-0.02,0.03,0.04
13.554,-0.01,-0.04,0.09,0.10
13.564,0.00,-0.05,0.11,0.12
13.574,0.02,-0.01,0.09,0.09
13.584,0.02,0.03,0.06,0.07
13.594,0.03,0.03,0.03,0.05
13.604,0.02,0.02,-0.03,0.04
13.615,0.02,-0.01,-0.04,0.05
13.625,0.01,-0.04,-0.01,0.04
13.635,0.04,-0.05,-0.00,0.06
13.645,0.06,-0.04,0.01,0.07
13.655,0.07,-0.01,-0.02,0.07
13.665,0.06,-0.01,-0.03,0.06
13.675,0.01,0.01,-0.01,0.02
13.685,0.01,0.01,0.03,0.04
13.695,0.02,0.00,0.04,0.04
13.705,0.01,0.01,0.01,0.02
13.715,0.03,0.02,-0.02,0.04
13.725,0.05,0.02,-0.07,0.09
13.735,0.04,0.03,-0.06,0.07
13.745,-0.00,0.00,0.00,0.01
13.755,-0.03,-0.02,0.05,0.06
13.765,-0.01,-0.04,0.05,0.07
13.776,-0.02,-0.06,0.05,0.08
13.786,0.00,-0.04,0.02,0.04
13.796,0.02,-0.01,0.02,0.03
13.806,0.01,-0.01,0.02,0.03
13.816,0.01,-0.01,0.00,0.01
13.826,-0.01,-0.00,0.01,0.01
13.836,-0.04,-0.00,0.03,0.05
13.846,-0.03,-0.01,0.05,0.06
13.856,-0.01,-0.05,0.11,0.12
13.866,0.00,-0.05,0.13,0.14
13.876,0.02,-0.03,0.09,0.10
13.886,0.03,-0.01,0.03,0.05
13.896,0.02,0.01,-0.03,0.04
13.906,0.01,0.02,-0.07,0.08
13.916,-0.02,0.02,-0.09,0.09
13.926,-0.03,-0.00,-0.05,0.06
13.936,0.00,-0.01,-0.01,0.02
13.947,0.04,-0.03,0.01,0.05
13.957,0.06,-0.02,-0.00,0.07
13.967,0.07,-0.01,-0.02,0.07
13.977,0.07,0.02,-0.06,0.10
13.987,0.04,0.02,-0.07,0.08
13.997,0.03,0.01,-0.05,0.06
14.007,0.01,-0.01,-0.02,0.02
14.017,-0.00,0.01,-0.00,0.01
14.027,0.01,-0.00,0.00,0.02
14.037,0.01,0.03,0.01,0.03
14.047,0.03,0.03,0.03,0.05
14.057,0.05,0.01,0.01,0.05
14.067,0.06,0.00,0.01,0.06
14.077,0.04,-0.01,-0.01,0.05
14.087,0.03,-0.02,-0.03,0.05
14.097,0.01,-0.03,-0.04,0.05
14.107,-0.01,-0.01,-0.05,0.05
14.118,-0.02,-0.03,-0.01,0.04
14.128,-0.03,-0.01,0.01,0.03
14.138,-0.03,0.02,0.01,0.04
14.148,-0.03,0.01,0.05,0.06
14.158,-0.01,0.00,0.01,0.02
14.168,-0.00,0.02,0.01,0.03
14.178,-0.01,0.00,0.00,0.01
14.188,0.01,-0.00,-0.02,0.03
14.198,0.01,-0.04,0.01,0.04
14.208,0.01,-0.04,0.04,0.06
14.218,0.01,-0.03,0.05,0.06
14.228,0.01,-0.02,0.01,0.02
14.238,0.01,-0.01,-0.00,0.01
14.248,-0.01,-0.01,0.01,0.02
14.258,-0.01,0.00,-0.00,0.01
14.268,0.01,0.00,0.01,0.01
14.278,0.01,-0.01,0.03,0.03
14.289,0.02,-0.03,0.03,0.05
14.299,0.04,-0.04,0.06,0.08
14.309,0.04,-0.02,0.06,0.08
14.319,0.05,-0.00,0.04,0.06
14.329,0.03,0.02,-0.00,0.03
14.339,0.02,0.00,-0.02,0.03
14.349,0.01,-0.01,-0.00,0.01
14.359,0.01,-0.04,0.05,0.06
14.369,0.03,-0.06,0.04,0.08
14.379,0.04,-0.05,0.02,0.07
14.389,0.03,-0.04,0.02,0.05
14.399,0.01,0.01,0.01,0.01
14.409,-0.02,0.01,0.02,0.03
14.419,-0.00,0.01,0.04,0.04
14.429,0.01,0.01,0.01,0.02
14.439,0.03,0.01,-0.00,0.03
14.450,0.03,-0.00,0.00,0.03
14.460,0.01,0.00,-0.03,0.03
14.470,-0.02,0.01,-0.05,0.06
14.480,-0.06,-0.00,-0.01,0.06
14.490,-0.08,0.00,0.02,0.08
14.501,-0.04,0.01,0.04,0.06
14.510,0.01,0.02,0.00,0.03
14.520,0.02,0.03,-0.04,0.05
14.530,0.02,0.02,-0.08,0.08
14.540,-0.00,0.01,-0.06,0.06
14.550,-0.03,-0.02,0.00,0.03
14.560,-0.00,-0.05,0.03,0.06
14.570,0.03,-0.04,0.04,0.06
14.580,0.07,-0.04,0.05,0.09
14.590,0.08,-0.00,0.06,0.10
14.600,0.08,0.01,0.05,0.10
14.610,0.07,0.01,0.04,0.08
14.620,0.04,-0.02,0.01,0.05
14.631,0.03,-0.03,-0.00,0.04
14.641,0.04,-0.04,0.02,0.06
14.651,0.05,-0.05,0.04,0.08
14.661,0.05,-0.04,0.04,0.07
14.671,0.03,-0.04,0.00,0.05
14.681,-0.00,-0.01,-0.01,0.01
14.691,-0.03,-0.00,0.01,0.03
14.701,-0.03,0.01,0.01,0.03
14.711,-0.01,0.01,0.01,0.02
14.721,0.01,0.01,0.01,0.02
14.731,0.02,-0.00,0.00,0.02
14.741,0.01,0.01,0.01,0.02
14.751,0.02,-0.01,0.03,0.03
14.761,0.01,-0.03,0.03,0.04
14.771,0.02,-0.03,0.03,0.05
14.781,0.01,-0.03,0.04,0.05
14.792,0.00,0.00,0.04,0.04
14.802,0.01,0.01,0.01,0.02
14.812,0.00,0.00,0.00,0.00
14.822,-0.01,-0.01,-0.02,0.03
14.832,-0.02,-0.04,-0.03,0.05
14.842,0.00,-0.03,-0.01,0.03
14.852,0.02,-0.01,0.01,0.02
14.862,0.02,-0.01,-0.00,0.03
14.872,0.03,0.01,-0.01,0.03
14.882,0.01,0.02,0.02,0.03
14.892,0.00,-0.00,0.04,0.04
14.902,0.01,-0.02,0.02,0.03
14.912,0.03,0.02,-0.02,0.04
14.922,0.05,0.03,-0.06,0.09
14.932,0.04,0.04,-0.06,0.08
14.942,0.03,0.02,-0.03,0.05
14.953,0.03,0.01,0.01,0.03
14.963,0.01,-0.04,0.01,0.04
14.973,0.00,-0.04,-0.01,0.04
14.983,0.00,-0.03,-0.03,0.04
14.993,-0.01,-0.00,-0.03,0.04
15.003,-0.04,0.03,-0.00,0.05
15.013,-0.03,0.00,0.05,0.06
15.023,0.03,-0.00,0.07,0.07
15.033,0.06,0.02,0.03,0.07
15.043,0.05,0.00,-0.01,0.05
15.053,0.04,-0.02,0.00,0.04
15.063,0.01,-0.03,-0.04,0.05
15.073,-0.04,-0.03,-0.03,0.06
15.083,-0.06,-0.03,0.03,0.07
15.093,-0.05,-0.01,0.05,0.07
15.103,-0.02,0.02,0.04,0.05
15.113,0.01,0.05,-0.02,0.06
15.124,0.01,0.06,-0.10,0.11
15.134,-0.03,0.03,-0.10,0.11
15.143,-0.04,0.00,-0.07,0.08
15.154,-0.02,-0.03,-0.02,0.05
15.164,0.01,-0.05,0.01,0.05
15.174,0.04,-0.02,0.03,0.05
15.184,0.06,0.01,0.02,0.07
15.194,0.05,0.00,-0.00,0.05
15.204,0.03,0.00,-0.03,0.04
15.214,-0.00,-0.00,-0.01,0.01
15.224,0.01,-0.03,0.00,0.03
15.234,0.03,-0.03,0.02,0.04
15.244,0.03,-0.01,-0.00,0.03
15.254,0.03,0.03,-0.01,0.04
15.264,0.01,0.05,-0.02,0.05
15.274,-0.01,0.03,-0.02,0.04
15.284,-0.01,0.00,-0.02,0.02
15.295,-0.02,-0.02,-0.03,0.04
15.304,0.00,-0.03,-0.01,0.04
15.315,0.01,-0.04,-0.02,0.05
15.325,0.03,-0.03,0.00,0.04
15.335,0.02,-0.01,0.02,0.04
15.345,-0.00,0.00,0.06,0.06
15.355,-0.01,-0.01,0.09,0.09
15.365,0.00,0.00,0.08,0.08
15.375,0.02,0.01,0.03,0.04
15.385,0.02,0.02,0.03,0.04
15.395,0.02,0.00,0.00,0.02
15.405,0.02,-0.03,-0.03,0.05
15.415,0.02,-0.05,-0.04,0.07
15.425,0.02,-0.05,-0.05,0.07
15.435,0.03,-0.04,-0.05,0.07
15.445,0.01,0.00,-0.04,0.04
15.456,-0.01,0.03,-0.01,0.03
15.466,-0.01,0.03,0.01,0.04
15.476,-0.03,0.01,0.04,0.05
15.486,-0.01,0.01,0.06,0.06
15.496,0.03,0.00,0.05,0.06
15.506,0.06,0.02,0.01,0.07
15.516,0.08,0.04,-0.02,0.09
15.526,0.07,0.02,-0.02,0.07
15.536,0.02,-0.00,-0.01,0.02
15.546,-0.00,-0.06,0.03,0.07
15.556,0.00,-0.08,0.02,0.08
15.566,0.01,-0.08,-0.01,0.08
15.576,0.01,-0.04,-0.01,0.04
15.586,0.01,0.01,-0.00,0.02
15.597,0.01,0.02,0.01,0.03
15.607,0.00,0.05,0.02,0.06
15.617,-0.02,0.05,0.03,0.06
15.627,-0.03,0.02,0.02,0.04
15.637,-0.03,-0.03,0.00,0.04
15.647,-0.03,-0.03,0.03,0.05
15.657,-0.05,-0.04,0.06,0.09
15.667,-0.01,-0.03,0.06,0.06
15.677,0.00,-0.02,0.03,0.04
15.687,0.01,0.02,0.01,0.02
15.697,0.03,0.04,-0.04,0.06
15.707,0.00,0.06,-0.08,0.10
15.717,-0.02,0.02,-0.06,0.07
15.727,-0.02,-0.02,-0.02,0.03
15.737,-0.00,-0.02,0.01,0.02
15.747,0.02,-0.02,0.03,0.04
15.757,0.06,-0.01,0.02,0.06
15.767,0.07,-0.01,0.00,0.07
15.778,0.06,-0.01,0.01,0.06
15.787,0.04,-0.03,0.00,0.05
15.798,0.03,-0.04,0.03,0.05
15.808,0.03,-0.02,0.05,0.06
15.818,0.04,0.01,0.03,0.05
15.828,0.03,0.03,-0.01,0.04
15.838,0.00,0.02,-0.03,0.04
15.848,-0.01,0.02,-0.04,0.04
15.858,-0.02,0.00,-0.03,0.03
15.868,-0.01,-0.02,-0.01,0.03
15.878,0.01,-0.03,-0.00,0.03
15.888,0.02,-0.04,-0.02,0.05
15.898,0.02,-0.01,-0.02,0.03
15.908,0.01,0.01,0.00,0.02
15.918,-0.00,0.01,0.02,0.02
15.928,-0.01,0.01,0.02,0.02
15.938,-0.01,-0.01,0.04,0.04
15.948,-0.01,-0.01,0.03,0.04
15.959,0.01,0.00,0.01,0.02
15.968,0.01,-0.00,-0.01,0.02
15.979,0.00,0.00,-0.03,0.03
15.989,0.00,-0.00,-0.01,0.01
15.999,-0.00,-0.03,-0.02,0.03
16.009,0.00,-0.03,0.00,0.03
16.019,-0.02,-0.02,0.02,0.03
16.029,0.01,0.01,0.02,0.03
16.039,0.01,0.02,0.00,0.02
16.049,-0.01,0.03,-0.02,0.03
16.059,-0.02,0.01,0.01,0.02
16.069,-0.01,0.01,0.01,0.02
16.079,0.01,0.03,-0.02,0.04
16.089,0.03,0.04,-0.02,0.06
16.099,0.05,0.04,-0.04,0.08
16.109,0.04,0.02,-0.09,0.10
16.119,0.01,0.01,-0.07,0.08
16.130,0.00,-0.03,-0.04,0.05
16.140,-0.02,-0.07,-0.01,0.07
16.150,-0.02,-0.06,-0.01,0.07
16.160,-0.03,-0.03,0.01,0.04
16.170,-0.03,0.01,-0.02,0.04
16.180,-0.06,0.03,-0.02,0.07
16.190,-0.07,0.04,0.03,0.09
16.200,-0.04,0.01,0.11,0.12
16.210,0.01,0.00,0.13,0.13
16.220,0.03,0.01,0.06,0.07
16.230,0.02,0.01,-0.01,0.03
16.240,-0.01,0.02,-0.03,0.03
16.250,-0.05,-0.01,-0.01,0.05
16.260,-0.02,-0.04,-0.02,0.05
16.270,-0.00,-0.05,-0.02,0.06
16.280,0.03,-0.02,-0.00,0.04
16.290,0.09,0.01,-0.00,0.09
16.301,0.11,0.03,-0.00,0.11
16.311,0.08,0.04,0.02,0.09
16.321,0.05,0.00,0.05,0.07
16.331,0.03,-0.02,0.06,0.07
16.341,0.03,-0.03,0.04,0.06
16.351,0.04,-0.06,0.01,0.07
16.361,0.04,-0.05,-0.01,0.06
16.371,0.03,-0.05,0.00,0.06
16.381,0.02,-0.04,0.04,0.06
16.391,0.02,-0.00,0.08,0.08
16.401,0.04,0.00,0.06,0.07
16.411,0.04,0.01,0.04,0.05
16.421,0.02,0.02,-0.02,0.03
16.431,0.00,0.03,-0.05,0.06
16.441,-0.02,0.03,-0.06,0.07
16.451,-0.01,0.00,0.00,0.01
16.462,-0.01,-0.01,0.07,0.07
16.471,0.05,-0.02,0.08,0.10
16.482,0.07,-0.01,0.07,0.11
16.492,0.09,-0.02,0.02,0.09
16.502,0.07,-0.01,-0.08,0.10
16.512,0.03,-0.01,-0.12,0.12
16.522,-0.02,-0.01,-0.12,0.12
16.532,-0.05,-0.03,-0.08,0.09
16.542,-0.06,-0.00,-0.03,0.07
16.552,-0.06,0.03,-0.02,0.07
16.562,-0.04,0.06,-0.03,0.08
16.572,-0.01,0.06,-0.04,0.07
16.582,-0.03,0.03,-0.06,0.07
16.592,-0.04,0.01,-0.09,0.10
16.602,-0.04,0.02,-0.09,0.11
16.612,-0.08,0.00,-0.06,0.10
16.622,-0.09,0.00,-0.02,0.09
16.632,-0.11,0.02,-0.02,0.11
16.642,-0.15,0.00,0.02,0.15
16.653,-0.11,0.02,0.06,0.13
16.663,-0.06,0.02,0.09,0.11
16.673,0.03,0.02,0.10,0.11
16.683,0.11,0.01,0.04,0.12
16.693,0.14,0.01,-0.01,0.14
16.703,0.13,-0.00,-0.04,0.13
16.713,0.10,-0.04,-0.04,0.12
16.723,0.03,-0.05,-0.07,0.09
16.733,-0.06,-0.06,-0.08,0.12
16.743,-0.11,-0.02,0.00,0.11
16.753,-0.14,0.02,0.09,0.16
16.763,-0.13,0.05,0.12,0.19
16.773,-0.07,0.04,0.07,0.10
16.783,0.01,0.03,0.02,0.04
16.793,0.08,0.01,0.02,0.08
16.804,0.13,-0.04,0.09,0.16
16.814,0.15,-0.10,0.14,0.23
16.824,0.14,-0.10,0.09,0.19
16.834,0.07,-0.08,-0.03,0.12
16.844,0.02,-0.04,-0.05,0.06
16.854,0.04,0.01,-0.06,0.07
16.864,0.06,0.06,-0.13,0.16
16.874,0.04,0.09,-0.23,0.25
16.884,-0.03,0.08,-0.26,0.27
16.894,-0.10,0.04,-0.14,0.18
16.904,-0.12,0.00,-0.01,0.12
16.914,-0.09,0.00,0.02,0.09
16.924,-0.06,-0.00,0.03,0.07
16.934,-0.02,0.01,0.02,0.03
16.944,0.03,0.00,0.03,0.04
16.954,0.06,-0.01,0.05,0.08
16.965,0.07,-0.02,0.07,0.10
16.974,0.04,-0.06,0.12,0.14
16.985,0.02,-0.06,0.09,0.11
16.995,0.01,-0.04,-0.03,0.05
17.005,0.00,-0.04,-0.06,0.07
17.015,-0.01,-0.05,0.01,0.05
17.025,0.00,-0.03,0.02,0.04
17.035,0.03,0.01,-0.04,0.05
17.045,0.00,0.04,-0.09,0.10
17.055,-0.01,0.04,-0.06,0.07
17.065,0.01,0.02,-0.06,0.06
17.075,0.03,0.03,-0.04,0.06
17.085,0.04,0.03,-0.03,0.06
17.095,0.01,0.07,-0.06,0.10
17.105,0.02,0.06,-0.09,0.11
17.115,0.06,0.08,-0.11,0.15
17.125,0.02,0.09,-0.16,0.18
17.135,-0.03,0.09,-0.22,0.24
17.146,-0.09,0.07,-0.22,0.25
17.156,-0.14,0.06,-0.13,0.20
17.166,-0.13,0.01,-0.02,0.14
17.176,-0.10,-0.04,0.05,0.12
17.186,-0.08,-0.09,0.13,0.18
17.196,-0.04,-0.08,0.18,0.21
17.206,0.01,-0.08,0.20,0.22
17.216,0.01,-0.08,0.19,0.21
17.226,0.00,-0.11,0.17,0.21
17.236,0.03,-0.12,0.20,0.24
17.246,0.06,-0.09,0.18,0.21
17.256,0.09,-0.05,0.20,0.22
17.266,0.11,-0.04,0.23,0.26
17.276,0.13,-0.04,0.22,0.26
17.286,0.12,-0.06,0.15,0.20
17.296,0.07,-0.13,0.15,0.21
17.306,0.08,-0.14,0.12,0.20
17.316,0.15,-0.09,0.06,0.19
17.327,0.17,-0.03,-0.02,0.17
17.337,0.17,0.01,-0.06,0.18
17.347,0.15,0.02,-0.07,0.17
17.357,0.12,0.05,-0.11,0.17
17.367,0.08,0.06,-0.15,0.18
17.377,-0.00,0.06,-0.10,0.11
17.387,-0.06,0.04,-0.13,0.15
17.397,-0.11,0.03,-0.12,0.17
17.407,-0.12,0.01,-0.08,0.15
17.417,-0.09,0.01,-0.02,0.09
17.427,-0.02,0.00,-0.00,0.02
17.437,0.04,0.03,0.03,0.06
17.447,0.08,0.03,0.03,0.09
17.457,0.06,0.01,0.05,0.08
17.467,0.05,-0.00,0.06,0.08
17.477,0.02,-0.02,0.05,0.06
17.488,0.01,0.00,0.04,0.04
17.498,0.02,0.02,0.01,0.03
17.508,-0.02,0.00,0.05,0.06
17.518,-0.04,-0.03,0.08,0.10
17.528,-0.02,-0.03,0.06,0.07
17.538,-0.00,-0.04,0.05,0.06
17.548,0.02,-0.06,0.07,0.09
17.558,0.05,-0.11,0.13,0.18
17.568,0.07,-0.11,0.18,0.23
17.578,0.11,-0.09,0.17,0.22
17.588,0.13,-0.08,0.18,0.24
17.598,0.07,-0.07,0.18,0.21
17.608,0.03,-0.07,0.16,0.18
17.618,-0.01,-0.08,0.15,0.17
17.628,0.00,-0.08,0.13,0.15
17.638,0.04,-0.06,0.11,0.13
17.649,0.07,-0.06,0.13,0.16
17.659,0.16,-0.05,0.07,0.18
17.669,0.17,-0.01,-0.04,0.18
17.679,0.09,0.03,-0.08,0.12
17.689,0.03,0.04,-0.08,0.09
17.699,-0.01,0.03,-0.07,0.07
17.709,-0.00,0.05,-0.08,0.10
17.719,-0.00,0.05,-0.10,0.11
17.729,-0.00,0.02,-0.10,0.10
17.739,0.00,-0.02,-0.10,0.11
17.749,-0.00,-0.01,-0.12,0.12
17.759,-0.04,0.02,-0.09,0.09
17.769,-0.09,0.03,-0.05,0.11
17.779,-0.13,0.06,-0.01,0.14
17.789,-0.13,0.06,0.02,0.14
17.799,-0.10,0.07,-0.01,0.13
17.809,-0.07,0.06,-0.05,0.11
17.819,-0.02,0.07,-0.03,0.08
17.830,0.03,0.08,-0.03,0.09
17.840,0.10,0.09,-0.07,0.15
17.850,0.16,0.14,-0.08,0.23
17.860,0.19,0.16,-0.08,0.27
17.870,0.09,0.06,-0.13,0.17
17.880,-0.03,-0.11,-0.21,0.24
17.890,-0.01,-0.09,-0.16,0.19
17.900,-0.06,-0.10,-0.14,0.18
17.910,-0.03,-0.09,-0.12,0.15
17.920,0.11,0.03,-0.07,0.13
17.930,0.08,-0.06,0.11,0.14
17.940,0.11,-0.08,0.07,0.15
17.950,0.14,0.20,0.13,0.28
17.960,0.06,0.22,0.18,0.29
17.970,-0.08,0.09,0.11,0.16
17.980,-0.27,-0.25,0.05,0.37
17.991,-0.08,-0.05,0.04,0.10
18.001,-0.07,0.09,0.04,0.12
18.011,-0.08,-0.00,0.01,0.08
18.021,-0.08,-0.06,-0.02,0.10
