time,ax,ay,az,atotal
0.000,0.11,-0.04,0.04,0.12
0.010,0.15,-0.12,0.01,0.19
0.020,0.10,-0.19,-0.03,0.22
0.030,0.03,-0.19,-0.02,0.19
0.040,0.01,-0.14,-0.03,0.14
0.050,-0.00,-0.11,0.03,0.12
0.061,0.02,-0.09,0.05,0.11
0.070,0.02,-0.06,0.00,0.07
0.080,0.06,0.02,-0.06,0.09
0.090,0.06,0.13,-0.10,0.17
0.101,0.05,0.15,-0.13,0.20
0.110,0.03,0.11,-0.09,0.15
0.121,0.01,0.05,-0.04,0.06
0.131,0.00,-0.02,-0.05,0.05
0.141,0.00,-0.03,0.01,0.03
0.151,0.03,0.18,-0.05,0.19
0.161,-0.16,-0.23,-0.01,0.29
0.171,0.03,-0.22,0.15,0.26
0.181,0.10,-0.13,0.12,0.20
0.191,0.13,-0.08,0.05,0.16
0.201,0.19,0.02,0.02,0.19
0.211,0.19,0.05,-0.04,0.20
0.221,0.14,-0.01,-0.04,0.14
0.231,0.11,0.02,0.06,0.13
0.241,0.11,0.05,0.05,0.13
0.251,0.12,0.15,0.02,0.19
0.261,0.07,0.08,-0.01,0.11
0.271,0.05,-0.06,0.01,0.07
0.282,0.02,-0.18,0.07,0.19
0.291,0.01,-0.20,0.02,0.20
0.302,0.07,-0.04,0.03,0.09
0.312,0.03,0.11,0.04,0.12
0.322,0.01,0.22,0.05,0.22
0.331,0.03,0.16,0.09,0.19
0.342,0.02,0.07,0.20,0.22
0.352,-0.01,0.01,0.25,0.25
0.362,-0.03,-0.16,0.15,0.23
0.372,-0.08,-0.19,0.12,0.24
0.382,-0.11,-0.13,0.03,0.17
0.392,-0.29,-0.13,-0.26,0.41
0.402,0.12,-0.05,0.09,0.16
0.412,0.04,-0.10,0.16,0.19
0.422,-0.10,-0.18,0.17,0.26
0.432,-0.07,-0.26,0.18,0.32
0.442,-0.04,-0.30,0.20,0.36
0.452,-0.07,-0.28,0.26,0.39
0.463,-0.01,-0.09,0.39,0.40
0.472,-0.05,0.10,0.38,0.40
0.482,0.16,0.12,0.34,0.39
0.492,0.23,0.00,0.33,0.41
0.503,0.29,-0.07,0.30,0.42
0.512,0.34,-0.09,0.26,0.44
0.523,0.34,-0.11,0.19,0.40
0.533,0.33,-0.04,0.19,0.38
0.543,0.29,0.06,0.17,0.34
0.553,0.21,0.08,0.27,0.35
0.563,0.11,-0.01,0.38,0.39
0.573,0.04,-0.08,0.45,0.46
0.583,-0.01,-0.04,0.41,0.41
0.593,-0.04,-0.00,0.28,0.28
0.603,-0.09,0.01,0.17,0.19
0.613,-0.16,0.02,0.10,0.19
0.623,-0.14,0.00,0.13,0.19
0.633,-0.08,-0.04,0.18,0.20
0.643,-0.03,-0.12,0.17,0.22
0.653,0.01,-0.20,0.16,0.26
0.664,0.07,-0.22,0.11,0.25
0.674,0.11,-0.16,0.09,0.21
0.684,0.15,-0.09,0.06,0.18
0.694,0.16,-0.03,0.00,0.17
0.704,0.13,-0.03,-0.05,0.14
0.714,0.08,-0.02,-0.05,0.10
0.724,0.07,0.03,-0.01,0.07
0.734,0.08,-0.00,0.09,0.11
0.744,0.11,-0.05,0.16,0.20
0.754,0.14,-0.14,0.20,0.29
0.764,0.13,-0.25,0.27,0.38
0.774,0.11,-0.26,0.38,0.47
0.784,0.11,-0.18,0.37,0.42
0.794,0.06,-0.08,0.30,0.32
0.804,0.07,-0.01,0.22,0.24
0.814,0.10,0.00,0.18,0.20
0.825,0.08,-0.11,0.18,0.23
0.835,0.06,-0.15,0.16,0.23
0.845,0.07,-0.11,0.16,0.20
0.855,0.09,-0.03,0.20,0.22
0.865,0.12,0.02,0.20,0.23
0.875,0.16,0.05,0.14,0.21
0.885,0.17,0.07,0.10,0.21
0.895,0.16,-0.01,0.13,0.20
0.905,0.18,-0.08,0.23,0.30
0.915,0.22,-0.07,0.28,0.36
0.925,0.24,-0.08,0.30,0.39
0.935,0.21,-0.04,0.32,0.38
0.945,0.16,-0.17,0.26,0.35
0.955,0.22,-0.12,0.23,0.34
0.965,0.36,-0.02,0.17,0.40
0.975,0.59,-0.23,0.09,0.64
0.985,0.62,0.17,0.11,0.65
0.995,0.57,0.15,0.05,0.59
1.006,0.31,-0.20,0.02,0.37
1.016,0.04,-0.07,0.06,0.10
1.026,0.06,0.02,-0.02,0.07
1.036,-0.02,0.09,-0.08,0.12
1.046,-0.01,0.15,-0.16,0.21
1.056,0.09,0.19,-0.19,0.29
1.066,0.18,0.22,-0.15,0.32
1.076,0.22,0.10,-0.14,0.28
1.086,0.15,-0.07,-0.15,0.22
1.096,-0.01,-0.24,-0.22,0.33
1.106,-0.17,-0.27,-0.28,0.42
1.116,-0.24,-0.16,-0.25,0.38
1.126,-0.27,-0.07,-0.22,0.35
1.136,-0.25,-0.00,-0.20,0.32
1.146,-0.21,0.12,-0.26,0.35
1.156,-0.21,0.20,-0.35,0.45
1.166,-0.23,0.27,-0.41,0.54
1.176,-0.16,0.26,-0.41,0.51
1.187,-0.02,0.12,-0.27,0.30
1.196,0.16,-0.07,-0.16,0.24
1.207,0.33,-0.18,-0.11,0.39
1.216,0.43,-0.20,-0.10,0.48
1.227,0.47,-0.15,-0.10,0.50
1.237,0.50,-0.14,-0.06,0.52
1.247,0.50,-0.10,-0.00,0.51
1.257,0.54,-0.05,0.04,0.54
1.267,0.54,0.00,0.04,0.54
1.277,0.49,0.01,0.03,0.49
1.287,0.46,0.01,-0.04,0.46
1.297,0.46,0.05,-0.15,0.49
1.307,0.41,0.04,-0.29,0.51
1.317,0.34,-0.01,-0.39,0.52
1.327,0.21,-0.02,-0.41,0.46
1.337,0.10,0.06,-0.34,0.36
1.347,0.00,0.22,-0.28,0.36
1.357,-0.06,0.32,-0.25,0.41
1.368,-0.09,0.31,-0.22,0.39
1.377,-0.12,0.19,-0.21,0.31
1.388,-0.08,0.08,-0.26,0.28
1.398,-0.02,0.00,-0.28,0.28
1.408,0.05,-0.10,-0.24,0.27
1.418,0.09,-0.15,-0.25,0.30
1.428,0.07,-0.10,-0.24,0.27
1.438,-0.04,-0.05,-0.21,0.22
1.448,-0.16,-0.03,-0.18,0.24
1.458,-0.23,-0.05,-0.12,0.26
1.468,-0.26,-0.10,-0.05,0.28
1.478,-0.18,-0.12,-0.05,0.23
1.488,-0.11,-0.18,-0.11,0.24
1.498,-0.04,-0.22,-0.13,0.26
1.508,-0.02,-0.24,-0.12,0.27
1.518,-0.04,-0.20,-0.05,0.21
1.528,-0.00,-0.03,0.02,0.04
1.538,0.08,0.17,0.04,0.19
1.549,0.10,0.27,0.08,0.30
1.558,0.07,0.24,0.08,0.26
1.569,0.11,0.11,0.12,0.20
1.579,0.18,-0.06,0.16,0.24
1.589,0.24,-0.17,0.17,0.34
1.599,0.29,-0.18,0.17,0.39
1.609,0.29,-0.13,0.10,0.33
1.619,0.24,-0.09,0.04,0.26
1.629,0.17,-0.08,0.04,0.20
1.639,0.07,-0.07,0.06,0.12
1.649,0.00,-0.05,0.08,0.09
1.659,-0.01,0.01,0.01,0.02
1.669,-0.01,0.03,-0.09,0.09
1.679,-0.07,-0.01,-0.19,0.20
1.689,-0.16,0.04,-0.24,0.29
1.699,-0.21,0.14,-0.24,0.35
1.709,-0.06,0.29,-0.08,0.31
1.719,0.17,0.27,0.20,0.38
1.730,0.15,-0.00,0.32,0.35
1.740,0.10,-0.16,0.23,0.30
1.750,0.11,-0.16,0.14,0.24
1.760,0.07,-0.20,0.07,0.22
1.770,-0.03,-0.20,0.02,0.20
1.780,-0.06,-0.13,-0.03,0.14
1.790,-0.04,-0.02,-0.07,0.08
1.800,-0.01,0.11,-0.09,0.15
1.810,0.10,0.19,-0.06,0.22
1.820,0.18,0.10,-0.01,0.21
1.830,0.26,-0.03,0.06,0.27
1.840,0.31,-0.13,0.08,0.34
1.850,0.27,-0.17,0.06,0.32
1.860,0.21,-0.19,0.12,0.31
1.870,0.18,-0.11,0.26,0.34
1.880,0.13,-0.02,0.23,0.27
1.890,0.09,0.05,0.11,0.15
1.900,0.06,0.03,0.00,0.07
1.910,0.05,-0.03,-0.01,0.06
1.920,0.03,-0.11,0.01,0.11
1.931,0.02,-0.15,0.07,0.16
1.941,0.06,-0.10,0.08,0.14
1.951,0.08,-0.06,0.03,0.10
1.961,0.16,-0.03,-0.05,0.17
1.971,0.18,-0.04,-0.10,0.21
1.981,0.13,-0.05,-0.15,0.20
1.991,0.11,-0.01,-0.17,0.20
2.001,0.04,0.07,-0.13,0.16
2.011,0.01,0.15,-0.15,0.21
2.021,-0.02,0.10,-0.19,0.22
2.031,-0.14,-0.01,-0.20,0.24
2.041,-0.26,-0.05,-0.14,0.30
2.051,-0.28,-0.06,-0.09,0.30
2.061,-0.25,-0.09,-0.01,0.27
2.071,-0.21,-0.10,0.04,0.24
2.081,-0.18,-0.14,0.01,0.23
2.092,-0.17,-0.10,-0.02,0.19
2.101,-0.12,0.03,-0.07,0.14
2.112,-0.06,0.11,-0.11,0.17
2.122,0.03,0.17,-0.13,0.22
2.132,0.12,0.16,-0.21,0.29
2.142,0.12,0.07,-0.29,0.32
2.152,0.06,0.02,-0.30,0.31
2.162,-0.04,0.01,-0.30,0.30
2.172,-0.11,-0.04,-0.20,0.23
2.182,-0.16,-0.11,-0.06,0.21
2.192,-0.18,-0.11,0.03,0.22
2.202,-0.19,-0.03,0.06,0.20
2.212,-0.13,0.03,0.03,0.14
2.222,-0.06,0.02,-0.03,0.07
2.232,0.03,0.02,-0.03,0.05
2.242,0.16,-0.04,-0.01,0.16
2.253,0.26,-0.13,0.01,0.29
2.262,0.30,-0.15,0.03,0.33
2.273,0.30,-0.17,0.04,0.35
2.283,0.27,-0.14,0.07,0.31
2.293,0.26,-0.05,0.04,0.26
2.303,0.21,-0.03,-0.00,0.21
2.313,0.14,-0.02,-0.02,0.14
2.323,0.09,-0.03,-0.03,0.10
2.333,0.06,0.00,0.03,0.07
2.343,0.12,0.09,0.10,0.18
2.353,0.16,0.11,0.14,0.24
2.363,0.11,0.06,0.10,0.16
2.373,0.05,-0.00,0.06,0.08
2.383,-0.03,-0.04,0.03,0.05
2.393,-0.01,-0.02,0.00,0.02
2.403,-0.09,-0.03,0.03,0.10
2.413,0.02,0.01,0.04,0.05
2.423,0.04,-0.03,0.03,0.06
2.433,-0.01,-0.03,0.02,0.04
2.443,-0.03,-0.03,0.00,0.05
2.453,-0.08,-0.05,0.03,0.10
2.464,-0.03,-0.07,0.07,0.10
2.474,0.10,-0.07,0.08,0.15
2.484,0.17,-0.07,0.02,0.19
2.494,0.18,-0.05,-0.07,0.20
2.504,0.11,0.00,-0.11,0.15
2.514,-0.01,0.07,-0.07,0.10
2.524,-0.07,0.11,0.02,0.13
2.534,-0.07,0.11,0.07,0.15
2.544,-0.02,0.06,0.08,0.10
2.554,0.00,-0.06,0.06,0.09
2.564,0.04,-0.12,0.03,0.13
2.574,0.07,-0.13,0.06,0.16
2.584,0.09,-0.10,0.05,0.14
2.594,0.11,-0.04,0.06,0.13
2.604,0.09,-0.00,0.04,0.10
2.614,0.02,-0.02,-0.01,0.03
2.624,-0.04,-0.05,-0.02,0.06
2.635,-0.05,-0.07,-0.01,0.08
2.645,-0.02,-0.06,0.00,0.06
2.655,0.02,-0.03,0.01,0.03
2.665,0.03,0.01,0.03,0.04
2.675,0.07,0.03,0.05,0.09
2.685,0.02,0.01,0.04,0.04
2.695,-0.00,-0.04,0.02,0.05
2.705,0.03,-0.08,-0.02,0.08
2.715,0.04,-0.07,-0.05,0.09
2.725,0.05,-0.05,-0.04,0.08
2.735,0.05,-0.02,-0.04,0.07
2.745,0.04,-0.01,-0.02,0.05
2.755,0.02,0.02,-0.00,0.03
2.765,0.05,0.05,0.00,0.07
2.775,0.08,0.02,-0.02,0.08
2.785,0.08,-0.04,-0.06,0.10
2.796,0.06,-0.08,-0.08,0.13
2.805,0.08,-0.11,-0.06,0.15
2.816,0.06,-0.10,0.01,0.12
2.825,0.06,-0.08,0.02,0.10
2.836,0.03,-0.01,0.00,0.03
2.846,0.02,0.02,-0.06,0.07
2.856,-0.01,0.02,-0.09,0.09
2.866,-0.00,0.00,-0.08,0.08
2.876,0.02,-0.02,-0.05,0.06
2.886,0.06,-0.02,-0.02,0.06
2.896,0.10,0.00,-0.04,0.10
2.906,0.10,0.01,-0.04,0.11
2.916,0.07,0.01,-0.05,0.09
2.926,0.04,-0.02,-0.03,0.06
2.936,0.01,-0.05,0.02,0.05
2.946,0.03,-0.07,0.05,0.09
2.956,0.04,-0.06,0.06,0.09
2.966,0.05,-0.03,0.02,0.07
2.976,0.05,-0.02,0.01,0.06
2.986,0.04,-0.01,0.03,0.05
2.997,0.05,-0.02,0.03,0.06
3.006,0.05,-0.05,0.04,0.08
3.017,0.06,-0.07,0.01,0.09
3.027,0.06,-0.07,-0.01,0.09
3.037,0.06,-0.04,-0.01,0.07
3.047,0.06,0.01,0.02,0.06
3.057,0.03,-0.02,0.05,0.06
3.067,0.01,-0.03,0.05,0.06
3.077,0.02,-0.01,0.05,0.06
3.087,0.06,0.01,0.06,0.08
3.097,0.06,0.04,0.03,0.08
3.107,0.08,0.06,0.01,0.10
3.117,0.09,0.06,-0.00,0.10
3.127,0.09,-0.01,0.05,0.10
3.137,0.11,-0.07,0.06,0.14
3.147,0.13,-0.10,0.03,0.17
3.157,0.12,-0.10,0.04,0.16
3.167,0.09,-0.11,0.07,0.16
3.178,0.06,-0.06,0.07,0.11
3.188,0.05,0.02,0.08,0.09
3.198,0.07,0.02,0.07,0.10
3.208,0.06,-0.02,0.05,0.08
3.218,0.07,-0.05,0.02,0.09
3.228,0.12,-0.10,-0.01,0.15
3.238,0.13,-0.10,-0.03,0.17
3.248,0.12,-0.09,-0.05,0.16
3.258,0.13,-0.03,-0.03,0.14
3.268,0.10,0.02,-0.03,0.11
3.278,0.06,0.07,-0.04,0.10
3.288,0.05,0.08,-0.07,0.11
3.298,0.05,0.01,-0.09,0.10
3.308,0.05,-0.04,-0.07,0.10
3.318,0.07,-0.06,-0.06,0.11
3.328,0.09,-0.05,-0.04,0.11
3.339,0.09,-0.02,-0.04,0.10
3.348,0.10,-0.01,-0.02,0.10
3.359,0.08,0.01,-0.01,0.08
3.369,0.05,-0.02,-0.03,0.06
3.379,0.06,-0.05,-0.03,0.08
3.389,0.08,-0.08,-0.02,0.11
3.399,0.13,-0.06,0.02,0.15
3.409,0.14,-0.04,0.03,0.15
3.419,0.15,-0.00,0.01,0.15
3.429,0.14,0.02,-0.02,0.15
3.439,0.11,0.02,-0.03,0.12
3.449,0.08,0.01,-0.01,0.08
3.459,0.07,-0.01,0.01,0.08
3.469,0.06,-0.02,-0.02,0.07
3.479,0.07,-0.06,-0.02,0.10
3.489,0.04,-0.11,-0.01,0.12
3.499,0.02,-0.09,-0.01,0.10
3.509,0.01,-0.06,-0.00,0.06
3.520,0.01,0.01,-0.05,0.05
3.529,0.01,0.06,-0.06,0.09
3.540,-0.01,0.08,-0.10,0.13
3.550,-0.02,0.06,-0.11,0.12
3.560,-0.01,-0.01,-0.06,0.06
3.570,0.03,-0.04,0.01,0.05
3.580,0.08,-0.08,0.04,0.12
3.590,0.10,-0.10,0.04,0.15
3.600,0.11,-0.08,0.04,0.14
3.610,0.09,-0.06,0.03,0.11
3.620,0.11,-0.04,0.05,0.13
3.630,0.13,-0.03,0.04,0.14
3.640,0.10,-0.04,0.02,0.11
3.650,0.10,-0.04,0.01,0.11
3.660,0.07,-0.04,-0.01,0.09
3.670,0.07,-0.04,-0.04,0.09
3.680,0.07,-0.05,-0.06,0.10
3.690,0.02,-0.04,-0.07,0.08
3.700,0.01,0.00,-0.06,0.06
3.710,0.01,0.06,-0.03,0.06
3.721,0.01,0.06,0.02,0.07
3.731,0.05,0.06,0.03,0.09
3.741,0.10,0.04,0.01,0.10
3.751,0.11,-0.04,0.03,0.13
3.761,0.11,-0.12,0.08,0.18
3.771,0.13,-0.14,0.06,0.20
3.781,0.13,-0.09,0.03,0.16
3.791,0.10,-0.03,-0.02,0.10
3.801,0.08,0.01,-0.04,0.09
3.811,0.03,0.01,-0.03,0.05
3.821,-0.01,-0.01,-0.00,0.01
3.831,0.00,-0.04,0.05,0.06
3.841,0.02,-0.03,0.09,0.09
3.851,0.04,0.02,0.08,0.09
3.861,0.07,0.04,0.03,0.09
3.871,0.09,0.02,0.01,0.09
3.881,0.10,-0.03,0.01,0.10
3.891,0.09,-0.06,-0.01,0.11
3.902,0.05,-0.08,-0.00,0.10
3.912,0.03,-0.03,-0.01,0.05
3.922,0.01,-0.04,-0.02,0.04
3.932,-0.03,-0.00,-0.02,0.04
3.942,-0.03,-0.01,-0.00,0.03
3.952,-0.01,-0.05,0.04,0.06
3.962,0.01,-0.06,0.05,0.08
3.972,0.05,-0.08,0.06,0.11
3.982,0.06,-0.07,0.03,0.10
3.992,0.07,-0.04,0.01,0.09
4.002,0.08,-0.01,0.01,0.08
4.012,0.06,0.02,0.03,0.07
4.022,0.05,0.02,0.05,0.07
4.032,0.02,-0.03,0.03,0.05
4.042,0.02,-0.08,0.03,0.09
4.052,0.03,-0.08,-0.01,0.09
4.063,0.05,-0.03,-0.08,0.09
4.072,0.06,-0.01,-0.10,0.12
4.083,0.04,-0.01,-0.08,0.09
4.093,0.02,-0.01,-0.06,0.06
4.103,0.03,0.00,-0.02,0.04
4.113,0.02,0.00,0.02,0.03
4.123,0.05,0.01,0.02,0.05
4.133,0.07,0.01,-0.03,0.08
4.143,0.06,0.00,-0.04,0.07
4.153,0.04,-0.02,-0.01,0.04
4.163,0.04,-0.05,0.01,0.07
4.173,0.04,-0.07,0.03,0.09
4.183,0.04,-0.06,0.03,0.08
4.193,0.06,-0.04,0.02,0.07
4.203,0.09,-0.04,-0.00,0.10
4.213,0.13,-0.03,-0.03,0.13
4.223,0.11,-0.01,-0.05,0.12
4.233,0.11,0.03,-0.05,0.13
4.244,0.12,0.04,-0.04,0.13
4.253,0.13,0.02,-0.05,0.14
4.264,0.06,0.00,-0.04,0.07
4.273,0.00,-0.03,-0.03,0.05
4.284,-0.02,-0.03,0.01,0.04
4.294,0.04,-0.03,0.07,0.09
4.304,0.08,-0.06,0.06,0.12
4.314,0.10,-0.05,0.02,0.12
4.324,0.08,-0.05,0.01,0.09
4.334,0.07,-0.06,-0.02,0.09
4.344,0.04,-0.06,-0.07,0.10
4.354,0.03,-0.04,-0.04,0.07
4.364,0.04,-0.03,0.02,0.05
4.374,0.03,-0.04,0.08,0.10
4.384,0.04,-0.04,0.06,0.08
4.394,0.04,-0.05,-0.03,0.07
4.404,0.05,-0.03,-0.07,0.09
4.414,0.03,0.00,-0.02,0.03
4.424,0.04,0.04,0.09,0.10
4.434,0.06,0.07,0.13,0.16
4.444,0.07,0.04,0.08,0.11
4.454,0.08,-0.01,-0.01,0.08
4.465,0.08,-0.03,-0.07,0.11
4.475,0.08,-0.04,-0.04,0.10
4.485,0.07,-0.04,0.01,0.08
4.495,0.07,-0.05,0.07,0.11
4.505,0.09,-0.05,0.06,0.12
4.515,0.09,-0.06,0.04,0.11
4.525,0.06,-0.05,0.01,0.08
4.535,0.03,-0.06,0.04,0.07
4.545,0.03,-0.05,0.09,0.11
4.555,0.06,-0.02,0.14,0.15
4.565,0.11,-0.01,0.12,0.16
4.575,0.08,-0.03,0.05,0.10
4.586,0.05,-0.04,-0.02,0.07
4.595,0.00,-0.02,-0.05,0.05
4.606,-0.01,0.05,-0.07,0.09
4.615,-0.09,-0.13,-0.08,0.18
4.625,-0.14,-0.14,-0.03,0.20
4.635,-0.11,-0.05,-0.05,0.13
4.645,-0.04,0.01,-0.10,0.11
4.656,-0.03,0.03,-0.16,0.17
4.666,0.01,0.06,-0.15,0.16
4.676,0.03,0.04,-0.11,0.12
4.686,0.03,-0.00,-0.08,0.08
4.696,0.02,-0.03,-0.04,0.06
4.706,-0.03,-0.04,-0.03,0.06
4.716,-0.03,-0.02,-0.03,0.05
4.726,-0.02,0.03,-0.02,0.04
4.736,-0.01,0.03,-0.01,0.03
4.746,0.00,0.02,-0.01,0.02
4.756,0.02,0.00,-0.00,0.03
4.766,0.04,-0.04,-0.02,0.05
4.776,0.04,-0.05,-0.03,0.07
4.786,0.03,-0.05,-0.02,0.06
4.796,0.04,-0.06,-0.02,0.07
4.807,0.01,-0.09,-0.02,0.09
4.817,0.00,-0.08,-0.01,0.09
4.827,-0.00,-0.03,-0.01,0.03
4.837,0.02,0.01,-0.06,0.07
4.847,0.03,-0.01,-0.12,0.12
4.857,-0.00,-0.01,-0.09,0.09
4.867,-0.04,0.02,0.02,0.04
4.877,0.00,0.01,0.11,0.11
4.887,0.07,-0.09,0.07,0.13
4.897,0.13,-0.12,0.01,0.17
4.907,0.16,-0.11,-0.00,0.19
4.917,0.13,-0.06,-0.01,0.15
4.927,0.05,-0.03,-0.03,0.07
4.937,0.01,0.04,-0.03,0.05
4.947,-0.00,0.07,0.00,0.07
4.957,-0.01,0.04,0.04,0.06
4.968,-0.01,0.01,0.05,0.05
4.978,0.04,-0.02,0.04,0.06
4.988,0.07,-0.03,0.01,0.08
4.998,0.08,0.01,-0.02,0.08
5.008,0.10,0.04,-0.05,0.12
5.018,0.06,0.04,-0.03,0.08
5.028,0.01,0.01,-0.01,0.02
5.038,-0.00,-0.02,0.05,0.05
5.048,0.01,-0.08,0.07,0.11
5.058,0.04,-0.08,0.06,0.11
5.068,0.07,-0.05,0.05,0.10
5.078,0.10,-0.04,0.07,0.13
5.088,0.09,-0.02,0.07,0.11
5.098,0.05,-0.02,0.08,0.10
5.108,0.08,-0.05,0.08,0.13
5.118,0.15,-0.06,0.05,0.17
5.128,0.17,-0.05,0.03,0.18
5.138,0.17,-0.02,0.02,0.17
5.148,0.14,0.02,0.01,0.15
5.158,0.14,0.01,0.02,0.14
5.169,0.12,-0.03,0.05,0.13
5.179,0.13,-0.07,0.07,0.17
5.189,0.13,-0.08,0.05,0.16
5.199,0.10,-0.07,0.01,0.12
5.209,0.06,-0.06,-0.03,0.09
5.219,0.04,-0.01,-0.05,0.06
5.229,0.04,0.01,-0.06,0.08
5.239,0.05,0.01,-0.06,0.08
5.249,0.05,-0.01,-0.03,0.07
5.259,0.05,-0.02,-0.02,0.06
5.269,0.07,0.00,-0.01,0.07
5.279,0.11,-0.03,0.01,0.12
5.289,0.12,-0.04,0.02,0.13
5.299,0.11,-0.03,0.05,0.12
5.309,0.10,-0.03,0.06,0.12
5.319,0.08,-0.03,0.05,0.10
5.329,0.07,-0.03,0.02,0.08
5.340,0.08,-0.04,-0.01,0.10
5.350,0.09,-0.03,-0.02,0.10
5.360,0.10,-0.03,-0.01,0.10
5.370,0.06,-0.02,0.03,0.07
5.380,0.07,0.02,0.08,0.11
5.390,0.10,0.00,0.10,0.14
5.400,0.07,-0.04,0.08,0.11
5.410,0.06,-0.06,0.06,0.11
5.420,0.09,-0.07,0.05,0.12
5.430,0.10,-0.04,0.06,0.12
5.440,0.10,-0.03,0.07,0.13
5.451,0.12,-0.01,0.06,0.13
5.460,0.12,0.01,0.02,0.12
5.470,0.07,-0.03,0.02,0.08
5.480,0.02,-0.05,0.05,0.08
5.490,-0.00,-0.02,0.03,0.03
5.500,0.02,0.00,0.03,0.04
5.510,0.05,0.01,0.02,0.06
5.520,0.07,0.00,0.02,0.07
5.531,0.11,-0.01,0.04,0.12
5.541,0.15,-0.03,0.05,0.16
5.551,0.13,-0.08,-0.01,0.15
5.561,0.07,-0.08,-0.04,0.11
5.571,0.06,-0.05,0.00,0.07
5.581,0.02,-0.02,0.03,0.04
5.591,0.00,-0.01,0.04,0.04
5.601,-0.01,-0.04,0.03,0.05
5.611,-0.00,-0.04,-0.01,0.04
5.621,-0.01,-0.02,-0.09,0.09
5.631,-0.03,0.02,-0.15,0.16
5.641,-0.03,0.04,-0.17,0.17
5.651,-0.01,0.02,-0.12,0.12
5.661,0.00,0.02,-0.08,0.08
5.671,0.01,-0.01,-0.01,0.02
5.681,0.02,-0.05,0.03,0.07
5.691,0.04,-0.08,0.03,0.10
5.701,0.06,-0.09,-0.03,0.11
5.711,0.11,-0.06,-0.04,0.13
5.722,0.13,-0.02,-0.03,0.13
5.732,0.10,-0.02,-0.01,0.10
5.742,0.06,-0.01,0.03,0.07
5.752,0.02,0.01,0.05,0.05
5.762,0.02,-0.01,0.04,0.05
5.772,0.03,-0.04,0.03,0.05
5.782,0.03,-0.06,-0.01,0.07
5.792,0.03,-0.06,-0.01,0.07
5.802,0.04,-0.04,0.02,0.06
5.812,0.01,-0.02,0.00,0.03
5.822,0.00,0.01,-0.01,0.02
5.832,0.00,0.00,0.01,0.01
5.842,-0.00,-0.02,0.04,0.05
5.852,-0.02,-0.05,0.03,0.06
5.862,0.02,-0.06,0.05,0.08
5.873,0.05,-0.05,0.05,0.09
5.883,0.07,-0.04,0.05,0.10
5.893,0.06,-0.04,0.03,0.08
5.903,0.05,-0.03,0.02,0.06
5.913,0.04,-0.03,0.03,0.06
5.923,0.04,-0.02,0.07,0.08
5.933,0.04,-0.05,0.06,0.09
5.943,0.04,-0.05,0.03,0.07
5.953,0.06,-0.03,0.00,0.07
5.963,0.05,-0.03,0.00,0.05
5.973,0.03,-0.00,0.02,0.04
5.983,0.01,-0.00,0.02,0.02
5.993,-0.00,-0.03,0.05,0.06
6.003,0.02,-0.02,0.08,0.09
6.013,0.05,0.00,0.08,0.09
6.024,0.06,0.02,0.05,0.07
6.033,0.06,-0.01,0.02,0.06
6.043,0.03,-0.03,0.03,0.05
6.053,0.04,-0.07,0.05,0.09
6.063,0.06,-0.08,0.03,0.11
6.074,0.08,-0.09,-0.04,0.12
6.084,0.06,-0.05,-0.06,0.09
6.094,0.03,-0.02,-0.07,0.07
6.104,-0.03,-0.00,-0.06,0.06
6.114,-0.02,-0.00,-0.05,0.06
6.124,-0.02,0.01,-0.02,0.04
6.134,-0.01,0.01,0.01,0.02
6.144,-0.01,0.01,0.02,0.02
6.154,0.01,-0.00,0.06,0.06
6.164,0.03,-0.05,0.04,0.07
6.174,0.06,-0.06,0.01,0.08
6.184,0.06,-0.06,0.01,0.09
6.194,0.07,-0.05,-0.01,0.08
6.204,0.05,-0.04,-0.01,0.07
6.214,0.04,-0.02,-0.02,0.06
6.224,0.06,-0.01,0.01,0.06
6.235,0.07,-0.03,0.04,0.08
6.244,0.05,-0.03,0.03,0.07
6.255,0.06,-0.01,-0.01,0.06
6.265,0.07,-0.02,-0.04,0.08
6.275,0.05,-0.00,-0.03,0.06
6.285,0.05,0.00,-0.01,0.05
6.295,0.06,0.03,0.01,0.06
6.305,0.11,0.00,0.02,0.11
6.315,0.11,-0.03,-0.01,0.12
6.325,0.08,-0.05,-0.04,0.11
6.335,0.08,-0.06,-0.05,0.11
6.345,0.05,-0.05,-0.03,0.07
6.355,0.03,-0.02,-0.05,0.06
6.365,0.00,0.03,-0.05,0.06
6.375,-0.02,0.05,-0.02,0.06
6.385,-0.04,0.04,-0.04,0.06
6.395,-0.04,0.02,-0.04,0.06
6.405,-0.03,-0.03,-0.01,0.05
6.416,0.00,-0.06,0.01,0.06
6.425,-0.02,-0.07,-0.02,0.07
6.436,-0.00,-0.05,-0.05,0.07
6.446,0.01,-0.04,-0.04,0.06
6.456,-0.01,-0.07,-0.01,0.07
6.466,0.00,-0.07,0.00,0.07
6.476,0.04,-0.05,0.02,0.07
6.486,0.05,-0.03,0.00,0.06
6.496,0.08,0.02,-0.02,0.08
6.506,0.12,0.01,-0.01,0.12
6.516,0.13,0.01,-0.02,0.14
6.526,0.09,-0.00,0.01,0.10
6.536,0.06,-0.04,0.02,0.08
6.546,0.04,-0.09,0.01,0.10
6.556,0.03,-0.06,0.05,0.08
6.566,0.08,0.01,0.06,0.10
6.576,0.10,-0.01,0.04,0.10
6.586,0.07,-0.02,-0.00,0.07
6.596,0.06,-0.02,-0.03,0.07
6.606,0.07,-0.03,-0.02,0.08
6.617,0.05,-0.05,-0.03,0.08
6.627,0.04,-0.03,-0.08,0.09
6.637,0.06,-0.01,-0.06,0.08
6.647,0.05,0.03,-0.03,0.07
6.657,0.07,0.04,0.01,0.09
6.667,0.06,0.00,0.02,0.07
6.677,0.06,-0.04,0.02,0.07
6.687,0.05,-0.07,0.03,0.09
6.697,0.02,-0.06,-0.00,0.06
6.707,0.01,-0.04,-0.01,0.04
6.717,-0.04,-0.01,0.01,0.04
6.727,-0.05,-0.02,0.00,0.05
6.737,-0.04,-0.03,-0.04,0.07
6.747,-0.02,-0.03,-0.03,0.04
6.757,-0.00,-0.02,-0.00,0.02
6.767,-0.01,-0.03,-0.03,0.04
6.778,-0.01,-0.04,-0.05,0.06
6.788,0.01,-0.00,-0.06,0.06
6.798,0.01,0.02,-0.04,0.05
6.808,-0.02,-0.04,-0.05,0.06
6.818,-0.02,-0.07,-0.04,0.08
6.828,-0.02,-0.07,-0.02,0.07
6.838,-0.01,-0.04,-0.02,0.04
6.848,0.00,-0.03,-0.03,0.04
6.858,-0.00,0.00,-0.04,0.04
6.868,-0.01,0.04,-0.05,0.07
6.878,-0.01,0.03,-0.05,0.06
6.888,0.00,-0.01,-0.06,0.06
6.898,0.00,-0.03,-0.03,0.04
6.908,0.02,-0.03,-0.01,0.04
6.918,0.03,-0.02,-0.02,0.04
6.928,0.03,0.03,-0.02,0.05
6.939,0.02,-0.01,-0.06,0.06
6.948,-0.03,-0.08,-0.05,0.10
6.959,-0.01,-0.05,-0.01,0.05
6.969,0.02,-0.02,0.00,0.03
6.979,0.01,-0.04,0.01,0.04
6.989,0.03,-0.05,0.00,0.05
6.999,0.02,-0.02,-0.01,0.03
7.009,-0.01,-0.00,-0.02,0.02
7.019,-0.03,-0.02,-0.03,0.05
7.029,-0.04,-0.04,-0.03,0.06
7.039,-0.01,-0.04,-0.03,0.05
7.049,-0.00,-0.00,-0.03,0.03
7.059,0.02,0.00,-0.01,0.03
7.069,0.01,-0.03,-0.04,0.05
7.079,-0.00,-0.02,-0.08,0.08
7.089,0.01,-0.01,-0.06,0.06
7.099,-0.02,0.01,-0.05,0.06
7.109,-0.02,0.02,-0.04,0.05
7.119,-0.03,0.03,0.00,0.04
7.129,-0.03,-0.01,0.02,0.04
7.140,0.01,-0.01,-0.01,0.02
7.150,0.02,-0.04,-0.02,0.05
7.160,0.06,-0.07,0.01,0.09
7.170,0.06,-0.10,0.03,0.12
7.180,0.04,-0.06,0.02,0.08
7.190,0.03,-0.02,-0.01,0.03
7.200,0.02,-0.01,-0.02,0.03
7.210,-0.01,-0.02,-0.00,0.02
7.220,-0.01,-0.00,-0.02,0.03
7.230,0.02,-0.02,-0.02,0.03
7.240,0.04,-0.03,-0.02,0.05
7.250,0.02,-0.05,-0.04,0.06
7.260,-0.01,-0.01,-0.02,0.02
7.270,0.01,0.01,-0.01,0.02
7.280,-0.00,0.00,-0.01,0.01
7.290,-0.02,-0.02,-0.01,0.02
7.300,-0.01,-0.01,0.01,0.01
7.310,0.01,-0.00,-0.01,0.01
7.321,0.00,-0.00,-0.01,0.01
7.331,0.02,-0.01,-0.01,0.02
7.341,0.02,-0.01,0.01,0.03
7.351,0.04,-0.02,0.02,0.05
7.361,0.02,-0.02,0.04,0.05
7.371,0.02,-0.03,0.04,0.06
7.381,0.03,-0.06,0.02,0.07
7.391,0.02,-0.07,0.01,0.07
7.401,-0.00,-0.07,0.01,0.07
7.411,-0.01,-0.04,0.02,0.05
7.421,-0.01,-0.02,0.04,0.05
7.431,-0.00,-0.03,0.04,0.06
7.441,-0.02,-0.02,0.00,0.03
7.451,-0.02,-0.02,-0.01,0.03
7.461,-0.03,0.00,-0.01,0.03
7.471,-0.04,-0.02,0.04,0.06
7.481,-0.03,0.02,0.05,0.07
7.491,-0.01,0.04,0.02,0.04
7.501,0.02,0.02,-0.03,0.04
7.511,0.01,0.01,-0.08,0.08
7.522,-0.01,0.00,-0.09,0.09
7.532,-0.04,-0.01,-0.04,0.06
7.542,-0.06,-0.05,0.02,0.08
7.552,-0.06,-0.09,0.06,0.12
7.562,-0.02,-0.12,0.04,0.13
7.572,-0.04,-0.13,0.01,0.14
7.582,-0.09,-0.13,-0.01,0.16
7.592,-0.10,-0.09,-0.04,0.14
7.602,-0.09,-0.04,-0.07,0.12
7.612,-0.07,0.02,-0.10,0.13
7.622,-0.04,0.04,-0.14,0.15
7.632,-0.00,0.03,-0.11,0.11
7.642,-0.02,0.02,-0.06,0.06
7.652,-0.07,-0.04,-0.05,0.09
7.662,-0.12,-0.08,-0.05,0.15
7.673,-0.17,-0.07,-0.09,0.21
7.683,-0.23,-0.06,-0.16,0.29
7.692,-0.27,-0.07,-0.21,0.35
7.703,-0.29,-0.07,-0.23,0.38
7.713,-0.35,-0.09,-0.23,0.43
7.723,-0.40,-0.13,-0.26,0.49
7.733,-0.42,-0.13,-0.37,0.58
7.743,-0.42,-0.10,-0.49,0.65
7.753,-0.40,-0.05,-0.57,0.70
7.763,-0.37,-0.00,-0.60,0.71
7.773,-0.40,0.01,-0.54,0.67
7.783,-0.46,-0.00,-0.49,0.67
7.793,-0.48,-0.05,-0.43,0.65
7.803,-0.48,-0.07,-0.41,0.64
7.813,-0.43,-0.09,-0.41,0.60
7.823,-0.42,-0.12,-0.40,0.59
7.833,-0.43,-0.20,-0.34,0.58
7.843,-0.41,-0.25,-0.36,0.60
7.853,-0.34,-0.28,-0.34,0.56
7.864,-0.26,-0.27,-0.30,0.48
7.873,-0.22,-0.27,-0.27,0.44
7.884,-0.17,-0.29,-0.25,0.42
7.894,-0.15,-0.33,-0.21,0.42
7.904,-0.04,-0.37,-0.19,0.42
7.914,0.07,-0.44,-0.16,0.47
7.924,0.10,-0.53,-0.15,0.57
7.934,0.15,-0.59,-0.24,0.65
7.944,0.15,-0.62,-0.37,0.73
7.954,0.09,-0.69,-0.49,0.86
7.964,0.04,-0.82,-0.56,0.99
7.974,-0.04,-0.99,-0.54,1.13
7.984,-0.18,-1.12,-0.49,1.24
7.994,-0.19,-1.20,-0.44,1.29
8.004,-0.12,-1.26,-0.32,1.30
8.014,-0.10,-1.29,-0.39,1.35
8.024,-0.27,-1.34,-0.49,1.45
8.034,-0.48,-1.53,-0.44,1.67
8.045,-0.58,-1.75,-0.27,1.86
8.055,-0.49,-1.82,-0.35,1.91
8.065,-0.44,-1.91,-0.32,1.98
8.075,-0.38,-2.07,-0.24,2.12
8.085,-0.21,-2.12,-0.14,2.14
8.095,-0.06,-2.08,-0.13,2.08
8.105,0.09,-1.75,-0.14,1.76
8.115,0.35,-1.35,-0.00,1.39
8.125,0.40,-0.99,0.02,1.06
8.135,0.29,-0.61,-0.08,0.68
8.145,0.14,-0.37,-0.19,0.44
8.155,-0.13,-0.24,-0.21,0.35
8.165,-0.42,-0.39,-0.29,0.64
8.175,-0.58,-0.49,-0.42,0.86
8.185,-0.55,-0.40,-0.22,0.72
8.195,-0.31,-0.13,0.13,0.36
8.205,-0.01,0.09,0.34,0.35
8.215,0.37,0.23,0.50,0.66
8.226,0.70,0.27,0.61,0.97
8.236,0.84,0.28,0.66,1.10
8.246,0.94,0.12,0.68,1.16
8.256,1.00,-0.04,0.55,1.14
8.266,1.11,-0.32,0.42,1.23
8.276,1.11,-0.52,0.42,1.29
8.286,1.10,-0.69,0.42,1.37
8.296,1.10,-0.87,0.42,1.46
8.306,0.97,-0.93,0.30,1.37
8.316,0.79,-0.81,0.27,1.16
8.326,0.55,-0.62,0.31,0.89
8.336,0.28,-0.55,0.37,0.72
8.346,0.12,-0.68,0.50,0.85
8.356,0.10,-0.91,0.58,1.08
8.366,0.22,-1.07,0.57,1.24
8.376,0.35,-1.11,0.56,1.29
8.386,0.44,-1.04,0.43,1.21
8.396,0.57,-0.89,0.35,1.12
8.407,0.67,-0.84,0.35,1.13
8.416,0.75,-0.77,0.38,1.14
8.427,0.85,-0.54,0.27,1.05
8.437,0.77,-0.24,0.13,0.82
8.447,0.54,-0.00,0.09,0.54
8.457,0.27,-0.01,0.06,0.28
8.467,0.08,-0.20,-0.01,0.22
8.477,-0.11,-0.39,-0.17,0.43
8.487,-0.12,-0.51,-0.14,0.54
8.497,0.01,-0.60,-0.05,0.61
8.507,0.13,-0.59,-0.05,0.61
8.517,0.24,-0.41,-0.12,0.49
8.527,0.29,-0.22,-0.08,0.37
8.537,0.34,-0.26,0.05,0.44
8.547,0.43,-0.43,0.10,0.62
8.557,0.49,-0.40,0.09,0.64
8.568,0.59,-0.25,0.17,0.66
8.577,0.67,-0.07,0.12,0.69
8.588,0.60,0.10,-0.10,0.62
8.598,0.45,0.35,-0.35,0.67
8.608,0.19,0.48,-0.53,0.74
8.618,-0.15,0.33,-0.54,0.65
8.628,-0.42,-0.02,-0.44,0.60
8.638,-0.55,-0.38,-0.23,0.71
8.648,-0.47,-0.56,-0.07,0.73
8.658,-0.29,-0.45,0.01,0.54
8.668,-0.07,-0.14,-0.05,0.16
8.678,0.11,0.23,-0.14,0.29
8.688,0.28,0.52,-0.27,0.65
8.698,0.25,0.63,-0.39,0.78
8.708,0.01,0.66,-0.48,0.82
8.718,-0.26,0.68,-0.52,0.90
8.728,-0.41,0.62,-0.32,0.81
8.738,-0.51,0.57,-0.14,0.78
8.748,-0.44,0.51,0.09,0.68
8.758,-0.25,0.38,0.13,0.47
8.769,-0.14,0.56,0.06,0.58
8.779,0.10,0.63,-0.20,0.66
8.789,-0.02,0.76,-0.48,0.90
8.800,-0.34,0.89,-0.57,1.11
8.809,-0.68,0.80,-0.63,1.22
8.819,-0.87,0.73,-0.43,1.21
8.829,-0.95,0.54,-0.30,1.13
8.839,-0.84,0.81,-0.26,1.20
8.849,-0.35,1.28,-0.06,1.33
8.859,0.14,1.27,-0.14,1.28
8.869,0.41,1.20,-0.42,1.33
8.879,0.27,1.09,-0.74,1.35
8.889,-0.29,0.88,-1.01,1.37
8.899,-0.88,0.66,-1.03,1.51
8.909,-1.32,0.55,-0.91,1.69
8.919,-1.55,0.62,-0.78,1.85
8.929,-1.65,0.55,-0.80,1.92
8.940,-1.64,0.54,-0.93,1.96
8.950,-1.48,0.69,-1.04,1.94
8.960,-1.35,0.77,-1.26,2.00
8.970,-1.26,0.94,-1.34,2.07
8.980,-1.18,1.13,-1.20,2.03
8.990,-1.19,1.37,-0.98,2.06
9.000,-1.30,1.89,-0.79,2.42
9.010,-1.48,2.40,-0.66,2.90
9.020,-1.60,2.71,-0.49,3.18
9.030,-1.61,2.98,-0.14,3.39
9.040,-1.36,3.18,0.12,3.46
9.050,-0.96,3.20,0.13,3.35
9.060,-0.53,2.64,0.13,2.69
9.070,0.10,1.64,0.64,1.77
9.080,0.75,0.94,0.95,1.53
9.090,1.30,0.60,0.77,1.62
9.100,1.68,0.29,1.01,1.98
9.110,1.82,-0.11,1.25,2.21
9.120,1.57,-0.52,0.98,1.92
9.131,1.10,-0.91,0.81,1.64
9.141,0.69,-1.11,1.04,1.67
9.151,0.57,-1.01,1.39,1.81
9.161,0.59,-0.86,1.58,1.90
9.171,0.66,-0.64,1.56,1.81
9.181,0.74,-0.28,1.34,1.56
9.191,0.76,0.09,0.94,1.21
9.201,0.62,0.30,0.57,0.89
9.211,0.38,0.28,0.35,0.59
9.221,0.12,0.15,0.48,0.52
9.231,0.00,0.00,0.72,0.72
9.241,0.01,-0.10,0.85,0.85
9.251,0.06,-0.29,1.03,1.08
9.261,0.19,-0.48,1.13,1.24
9.271,0.35,-0.58,1.11,1.30
9.281,0.51,-0.59,0.98,1.25
9.291,0.65,-0.49,0.84,1.17
9.301,0.80,-0.30,0.64,1.07
9.312,0.85,-0.21,0.44,0.98
9.322,0.79,-0.25,0.41,0.93
9.332,0.73,-0.32,0.49,0.94
9.342,0.66,-0.34,0.55,0.93
9.352,0.53,-0.34,0.63,0.89
9.362,0.38,-0.39,0.66,0.86
9.372,0.22,-0.37,0.64,0.77
9.382,0.13,-0.29,0.59,0.67
9.392,0.11,-0.18,0.62,0.66
9.402,0.19,-0.03,0.63,0.66
9.412,0.32,0.11,0.52,0.62
9.422,0.40,0.14,0.37,0.57
9.432,0.43,0.06,0.25,0.50
9.442,0.36,0.01,0.11,0.38
9.452,0.27,-0.06,0.00,0.27
9.462,0.16,-0.15,-0.01,0.22
9.472,0.15,-0.20,-0.02,0.25
9.482,0.15,-0.20,-0.02,0.25
9.493,0.16,-0.13,-0.06,0.21
9.503,0.14,-0.08,-0.06,0.17
9.513,0.12,-0.04,-0.00,0.13
9.523,0.09,-0.03,0.17,0.19
9.533,0.14,-0.01,0.19,0.23
9.543,0.18,0.03,0.13,0.22
9.553,0.22,0.05,0.08,0.24
9.563,0.23,0.05,-0.01,0.24
9.573,0.22,0.06,-0.13,0.26
9.583,0.20,0.06,-0.24,0.32
9.593,0.14,0.02,-0.27,0.31
9.603,0.01,-0.02,-0.19,0.19
9.613,-0.06,-0.05,-0.05,0.09
9.623,-0.05,-0.07,0.08,0.12
9.633,-0.07,-0.07,0.12,0.15
9.643,-0.06,-0.04,0.10,0.12
9.653,-0.07,0.00,0.08,0.11
9.664,-0.06,0.01,0.09,0.11
9.674,0.01,0.03,0.03,0.05
9.684,0.07,0.07,-0.04,0.11
9.694,0.15,0.09,-0.10,0.20
9.704,0.22,0.12,-0.19,0.32
9.714,0.24,0.11,-0.21,0.34
9.724,0.23,0.07,-0.19,0.31
9.734,0.23,0.05,-0.18,0.30
9.744,0.18,0.07,-0.23,0.30
9.754,0.12,0.08,-0.24,0.29
9.764,0.07,0.07,-0.21,0.23
9.774,0.06,0.09,-0.19,0.22
9.784,0.09,0.15,-0.21,0.27
9.794,0.10,0.15,-0.22,0.29
9.804,0.14,0.13,-0.20,0.28
9.814,0.19,0.09,-0.18,0.28
9.824,0.19,0.00,-0.15,0.24
9.835,0.16,-0.08,-0.09,0.20
9.844,0.12,-0.11,0.00,0.17
9.855,0.06,-0.10,0.11,0.16
9.865,-0.03,-0.09,0.17,0.20
9.875,-0.08,-0.07,0.20,0.23
9.885,-0.11,-0.05,0.20,0.23
9.895,-0.12,-0.03,0.15,0.20
9.905,-0.10,-0.03,0.14,0.17
9.915,-0.07,-0.02,0.16,0.18
9.925,-0.03,-0.04,0.18,0.18
9.935,0.02,-0.06,0.21,0.21
9.945,0.05,-0.08,0.20,0.22
9.955,0.08,-0.10,0.25,0.27
9.965,0.10,-0.08,0.24,0.27
9.975,0.10,-0.08,0.20,0.23
9.985,0.08,-0.07,0.14,0.17
9.995,0.06,-0.08,0.11,0.15
10.005,0.00,-0.09,0.07,0.12
10.016,-0.03,-0.10,0.05,0.12
10.025,-0.01,-0.07,0.04,0.09
10.036,0.00,-0.06,0.02,0.07
10.046,0.01,-0.06,0.02,0.07
10.056,0.05,-0.07,0.04,0.09
10.066,0.08,-0.04,0.02,0.09
10.076,0.10,-0.02,-0.03,0.10
10.086,0.08,0.03,-0.08,0.12
10.096,0.07,0.05,-0.13,0.15
10.106,0.06,0.06,-0.16,0.18
10.116,0.04,0.05,-0.17,0.18
10.126,0.02,0.01,-0.12,0.12
10.136,0.02,-0.01,-0.08,0.09
10.146,0.02,-0.02,-0.04,0.05
10.156,0.05,0.01,-0.00,0.05
10.166,0.04,0.04,-0.00,0.06
10.176,0.01,0.05,-0.02,0.06
10.186,-0.05,0.04,-0.03,0.07
10.197,-0.10,0.03,-0.01,0.11
10.206,-0.12,0.01,0.02,0.12
10.217,-0.08,0.01,-0.01,0.08
10.227,0.01,0.01,0.00,0.01
10.237,0.04,0.01,0.01,0.05
10.247,0.08,0.02,0.00,0.08
10.257,0.11,0.03,-0.05,0.13
10.267,0.10,0.01,-0.08,0.13
10.277,0.07,-0.01,-0.06,0.09
10.287,0.04,-0.02,-0.02,0.05
10.297,0.02,-0.04,0.05,0.07
10.307,0.02,-0.04,0.10,0.11
10.317,0.02,-0.01,0.12,0.12
10.327,0.03,0.03,0.10,0.11
10.337,0.05,0.06,0.00,0.07
10.347,0.03,0.03,-0.10,0.11
10.357,0.01,-0.02,-0.09,0.09
10.367,-0.00,-0.05,-0.01,0.05
10.378,0.01,-0.05,0.05,0.07
10.387,0.02,-0.04,0.07,0.09
10.398,0.03,-0.02,0.09,0.10
10.408,0.04,-0.02,0.09,0.10
10.418,0.02,-0.00,0.04,0.05
10.428,0.02,0.01,-0.05,0.05
10.438,0.02,-0.00,-0.09,0.09
10.448,0.01,-0.02,-0.07,0.07
10.458,-0.01,-0.04,0.00,0.04
10.468,0.00,-0.06,0.02,0.06
10.478,0.01,-0.07,0.03,0.07
10.488,0.00,-0.05,0.05,0.07
10.498,0.01,-0.04,0.03,0.06
10.508,0.03,-0.02,0.01,0.03
10.518,0.05,-0.01,0.02,0.05
10.528,0.09,0.00,-0.02,0.09
10.538,0.07,-0.00,-0.04,0.08
10.548,0.07,-0.01,-0.04,0.08
10.559,0.10,-0.02,-0.05,0.11
10.569,0.09,-0.02,-0.07,0.12
10.579,0.10,-0.03,-0.10,0.15
10.589,0.09,-0.00,-0.12,0.15
10.599,0.06,-0.01,-0.12,0.14
10.609,0.07,0.01,-0.10,0.12
10.619,0.07,0.02,-0.09,0.12
10.629,0.04,0.01,-0.10,0.10
10.639,0.00,0.01,-0.07,0.08
10.649,-0.03,0.01,-0.05,0.06
10.659,-0.06,0.00,-0.02,0.06
10.669,-0.08,0.01,0.02,0.08
10.679,-0.05,0.01,0.07,0.09
10.689,-0.03,-0.01,0.09,0.10
10.699,-0.00,-0.02,0.10,0.10
10.709,0.02,-0.03,0.08,0.08
10.719,0.01,-0.01,0.06,0.06
10.730,-0.00,-0.02,0.04,0.04
10.740,0.01,-0.02,-0.00,0.03
10.749,0.03,-0.03,-0.07,0.08
10.760,0.06,-0.06,-0.08,0.11
10.770,0.09,-0.02,-0.08,0.12
10.780,0.08,-0.01,-0.05,0.10
10.790,0.08,0.01,-0.02,0.09
10.800,0.04,0.02,-0.05,0.07
10.810,-0.04,-0.00,-0.04,0.05
10.820,-0.10,-0.01,0.02,0.10
10.830,-0.10,-0.00,0.05,0.11
10.840,-0.07,0.03,0.04,0.08
10.850,-0.04,0.04,-0.01,0.06
10.860,-0.00,0.03,-0.01,0.04
10.870,0.03,-0.01,0.02,0.03
10.880,0.07,-0.06,0.05,0.10
10.890,0.08,-0.09,0.03,0.13
10.900,0.09,-0.07,0.03,0.12
10.910,0.08,-0.06,0.02,0.10
10.920,0.07,-0.03,-0.00,0.08
10.930,0.03,-0.02,0.00,0.03
10.941,0.02,0.00,0.01,0.02
10.951,0.01,0.03,0.00,0.03
10.961,-0.00,0.02,-0.02,0.03
10.971,-0.01,0.02,-0.04,0.04
10.981,-0.01,-0.00,-0.04,0.04
10.991,-0.01,-0.00,-0.04,0.04
11.001,0.00,-0.01,0.03,0.03
11.011,0.01,-0.02,0.09,0.09
11.021,0.07,-0.02,0.09,0.11
11.031,0.09,-0.01,0.04,0.10
11.041,0.10,-0.02,0.02,0.10
11.051,0.09,-0.02,0.00,0.10
11.061,0.04,-0.03,-0.03,0.06
11.071,0.01,-0.02,-0.02,0.03
11.081,0.02,-0.02,-0.01,0.03
11.091,0.03,0.00,-0.01,0.03
11.102,0.04,-0.00,0.02,0.05
11.111,0.06,-0.02,0.03,0.07
11.122,0.07,-0.03,0.03,0.08
11.132,0.08,-0.02,0.03,0.09
11.142,0.09,-0.03,0.01,0.09
11.152,0.09,-0.03,0.04,0.10
11.162,0.09,-0.04,0.06,0.11
11.172,0.07,-0.03,0.04,0.09
11.182,0.09,-0.03,0.03,0.10
11.192,0.08,-0.02,-0.01,0.08
11.202,0.08,-0.01,-0.04,0.09
11.212,0.06,-0.01,-0.05,0.07
11.222,0.04,-0.01,-0.04,0.06
11.232,-0.00,-0.02,-0.02,0.03
11.242,-0.05,-0.02,-0.03,0.06
11.252,-0.07,-0.02,-0.02,0.07
11.262,-0.06,-0.01,0.01,0.06
11.273,-0.03,0.01,0.02,0.04
11.283,0.01,0.01,0.05,0.05
11.293,0.04,0.01,0.09,0.10
11.303,0.02,0.00,0.06,0.07
11.313,-0.00,-0.02,0.03,0.03
11.323,0.00,-0.02,-0.02,0.03
11.333,-0.00,-0.01,-0.06,0.06
11.343,0.00,0.00,-0.07,0.07
11.353,-0.01,0.01,-0.04,0.04
11.363,-0.01,0.02,-0.02,0.03
11.373,-0.01,-0.00,0.00,0.01
11.383,-0.01,0.01,0.01,0.02
11.393,0.03,0.02,0.03,0.04
11.403,0.05,0.03,0.00,0.06
11.413,0.06,0.02,-0.02,0.06
11.423,0.08,0.01,-0.02,0.08
11.433,0.08,-0.02,-0.01,0.08
11.443,0.09,-0.06,0.01,0.11
11.453,0.09,-0.10,0.03,0.14
11.464,0.08,-0.08,0.03,0.12
11.473,0.02,-0.06,0.01,0.07
11.484,-0.02,-0.04,0.04,0.05
11.494,-0.03,-0.02,0.02,0.04
11.504,-0.02,0.00,-0.01,0.02
11.514,-0.02,-0.00,-0.04,0.04
11.524,0.01,0.01,-0.02,0.02
11.534,0.02,0.02,-0.01,0.03
11.544,0.03,0.01,-0.01,0.03
11.554,0.01,-0.00,-0.02,0.03
11.564,0.03,-0.00,-0.02,0.03
11.574,0.01,-0.01,-0.05,0.05
11.584,0.02,-0.03,-0.04,0.05
11.594,0.02,-0.01,-0.05,0.06
11.604,0.02,0.01,-0.06,0.07
11.614,0.03,0.01,-0.06,0.07
11.624,0.02,0.00,-0.07,0.07
11.634,0.00,0.00,-0.07,0.07
11.645,-0.00,-0.01,-0.02,0.03
11.654,-0.00,-0.03,-0.01,0.03
11.665,0.01,-0.02,-0.01,0.03
11.675,0.02,-0.03,0.03,0.04
11.685,0.03,-0.01,0.03,0.04
11.695,0.05,0.00,-0.00,0.05
11.705,0.07,0.00,-0.02,0.07
11.715,0.04,0.02,-0.03,0.06
11.725,0.02,0.01,-0.04,0.05
11.735,0.02,0.01,-0.03,0.04
11.745,0.04,0.00,-0.02,0.04
11.755,0.02,-0.01,-0.00,0.02
11.765,0.03,-0.02,0.05,0.06
11.775,0.04,-0.01,0.04,0.06
11.785,0.03,-0.03,0.03,0.06
11.795,0.02,-0.04,0.04,0.06
11.805,0.03,-0.03,0.05,0.06
11.815,0.04,-0.04,0.02,0.06
11.825,0.04,-0.03,0.00,0.05
11.835,0.04,-0.02,0.00,0.05
11.846,0.03,-0.03,0.03,0.06
11.856,0.03,-0.04,0.06,0.08
11.866,0.02,-0.02,0.08,0.09
11.876,0.02,0.01,0.06,0.06
11.886,-0.00,-0.00,0.04,0.04
11.896,-0.01,-0.01,0.04,0.04
11.906,0.02,-0.03,0.05,0.06
11.916,0.05,-0.01,0.03,0.06
11.926,0.05,-0.00,-0.03,0.06
11.936,0.07,-0.01,-0.06,0.09
11.946,0.05,-0.01,-0.07,0.08
11.956,0.02,-0.00,-0.06,0.07
11.966,-0.01,-0.01,-0.02,0.03
11.976,-0.04,0.01,0.02,0.05
11.986,-0.05,-0.01,0.03,0.06
11.996,-0.05,-0.01,0.04,0.07
12.007,-0.03,-0.02,0.07,0.08
12.017,0.02,0.01,0.06,0.07
12.027,0.05,0.02,0.01,0.06
12.037,0.08,0.01,-0.02,0.08
12.047,0.09,-0.00,-0.03,0.09
12.057,0.09,-0.04,0.00,0.09
12.067,0.09,-0.08,0.03,0.13
12.077,0.09,-0.08,0.06,0.14
12.087,0.07,-0.04,0.06,0.10
12.097,0.03,-0.02,0.07,0.08
12.107,0.01,-0.01,0.03,0.03
12.117,-0.01,0.02,-0.02,0.03
12.127,-0.01,0.01,-0.05,0.05
12.137,-0.03,-0.01,-0.03,0.05
12.147,-0.02,-0.02,-0.00,0.02
12.157,-0.00,-0.02,0.03,0.03
12.167,-0.01,-0.03,0.02,0.03
12.177,0.00,-0.02,0.00,0.02
12.188,0.00,-0.01,-0.04,0.04
12.198,-0.02,-0.00,-0.07,0.07
12.208,-0.00,0.01,-0.08,0.08
12.218,-0.00,0.01,-0.05,0.05
12.228,-0.01,0.02,-0.07,0.07
12.238,-0.01,0.03,-0.08,0.09
12.248,-0.02,0.01,-0.09,0.09
12.258,-0.02,-0.01,-0.07,0.08
12.268,-0.01,-0.01,-0.04,0.04
12.278,-0.00,-0.02,-0.01,0.03
12.288,0.01,-0.03,0.00,0.03
12.298,0.02,-0.02,0.02,0.03
12.308,0.05,-0.02,0.03,0.06
12.318,0.07,-0.01,0.01,0.07
12.328,0.07,0.02,-0.00,0.07
12.338,0.07,0.03,-0.02,0.08
12.348,0.05,0.01,-0.05,0.07
12.358,0.02,-0.01,-0.05,0.05
12.369,0.01,-0.03,-0.04,0.05
12.379,-0.02,-0.04,0.01,0.04
12.389,-0.01,-0.04,0.04,0.05
12.399,-0.01,-0.03,0.04,0.04
12.409,0.01,-0.00,0.04,0.04
12.419,0.03,-0.00,-0.00,0.03
12.429,0.02,0.00,-0.02,0.03
12.439,0.04,-0.01,-0.01,0.05
12.449,0.04,-0.03,-0.01,0.05
12.459,0.05,-0.02,0.01,0.05
12.469,0.04,-0.05,0.01,0.06
12.479,0.04,-0.02,0.01,0.04
12.489,0.02,-0.01,0.03,0.04
12.499,0.01,-0.01,0.05,0.05
12.509,0.02,0.02,0.05,0.05
12.519,0.01,0.02,0.03,0.03
12.529,0.01,0.02,-0.01,0.02
12.540,0.02,0.01,-0.01,0.02
12.550,0.01,-0.02,0.01,0.03
12.560,0.02,-0.04,-0.00,0.04
12.570,0.01,-0.04,-0.04,0.05
12.580,0.02,-0.04,-0.04,0.06
12.590,0.00,-0.02,-0.02,0.03
12.600,-0.00,0.02,-0.03,0.03
12.610,-0.01,0.02,-0.03,0.04
12.620,-0.04,0.01,-0.00,0.04
12.630,-0.03,-0.01,0.02,0.04
12.640,-0.00,-0.01,0.04,0.04
12.650,0.05,0.01,0.04,0.07
12.660,0.09,0.03,0.00,0.10
12.670,0.09,0.01,-0.02,0.10
12.680,0.09,-0.01,-0.03,0.09
12.690,0.07,-0.04,-0.03,0.09
12.700,0.07,-0.10,-0.01,0.12
12.710,0.07,-0.07,0.02,0.10
12.720,0.06,-0.04,0.02,0.08
12.731,0.02,-0.01,0.02,0.03
12.741,-0.01,0.00,0.02,0.02
12.751,-0.03,0.01,0.03,0.05
12.761,-0.04,0.01,0.01,0.04
12.771,-0.04,-0.00,-0.01,0.04
12.781,-0.04,0.00,-0.02,0.04
12.791,-0.04,-0.00,-0.03,0.05
12.801,-0.04,-0.01,-0.03,0.05
12.811,-0.05,-0.01,-0.01,0.05
12.821,-0.04,-0.01,0.01,0.05
12.831,-0.02,-0.00,-0.01,0.02
12.842,-0.01,0.00,-0.01,0.01
12.851,0.00,-0.01,-0.02,0.02
12.861,0.01,0.00,-0.04,0.04
12.871,0.00,0.02,-0.06,0.06
12.881,0.01,0.01,-0.03,0.03
12.891,0.00,-0.02,0.02,0.02
12.901,0.05,-0.02,0.01,0.06
12.911,0.06,-0.03,0.01,0.07
12.921,0.07,-0.04,0.00,0.08
12.932,0.06,-0.06,0.02,0.09
12.942,0.05,-0.05,0.03,0.07
12.952,0.03,-0.03,0.03,0.05
12.962,0.03,-0.01,0.05,0.06
12.972,0.03,-0.01,0.05,0.06
12.982,0.03,-0.01,0.05,0.06
12.992,0.02,0.01,0.02,0.03
13.002,0.01,-0.00,-0.05,0.05
13.012,0.01,0.00,-0.09,0.09
13.022,0.01,0.00,-0.07,0.07
13.032,0.00,-0.00,-0.02,0.02
13.042,0.01,0.01,-0.04,0.04
13.052,0.03,0.01,-0.01,0.03
13.062,0.04,0.00,-0.00,0.04
13.073,0.05,-0.02,-0.02,0.06
13.082,0.05,-0.04,-0.02,0.07
13.093,0.03,-0.05,0.01,0.06
13.103,0.00,-0.07,0.02,0.07
13.113,-0.01,-0.06,0.03,0.07
13.123,-0.01,-0.03,0.06,0.07
13.133,0.01,0.00,0.09,0.09
13.143,-0.00,0.02,0.09,0.09
13.153,0.02,0.02,0.08,0.08
13.163,0.03,0.00,0.06,0.06
13.173,0.03,-0.02,0.04,0.05
13.183,0.03,-0.03,-0.03,0.05
13.193,0.02,-0.05,-0.06,0.08
13.203,0.01,-0.05,-0.06,0.08
13.213,0.00,-0.00,-0.04,0.04
13.223,-0.01,0.02,-0.01,0.02
13.233,-0.03,0.01,-0.03,0.04
13.243,-0.03,0.02,-0.03,0.05
13.253,-0.04,0.03,-0.00,0.05
13.263,-0.00,0.03,-0.01,0.03
13.274,0.03,0.04,0.00,0.05
13.284,0.07,0.04,-0.04,0.09
13.293,0.06,0.01,-0.07,0.10
13.304,0.06,-0.03,-0.05,0.08
13.314,0.07,-0.07,-0.01,0.10
13.324,0.07,-0.09,0.03,0.12
13.334,0.08,-0.07,0.06,0.12
13.344,0.03,-0.04,0.07,0.09
13.354,0.01,-0.02,0.07,0.08
13.364,-0.00,-0.00,0.06,0.06
13.374,-0.03,0.01,0.02,0.03
13.384,-0.02,0.00,0.02,0.03
13.394,-0.01,-0.02,0.02,0.03
13.404,0.02,-0.01,0.03,0.03
13.414,0.01,-0.03,0.01,0.03
13.424,0.01,-0.02,0.01,0.02
13.434,-0.01,-0.00,0.04,0.04
13.444,-0.00,0.00,0.01,0.01
13.454,0.01,-0.01,0.00,0.01
13.464,0.03,-0.01,0.01,0.03
13.475,0.03,-0.01,-0.02,0.04
13.484,0.02,0.01,-0.03,0.04
13.495,0.03,0.01,-0.05,0.06
13.505,-0.01,-0.01,-0.02,0.03
13.515,-0.00,-0.01,-0.00,0.01
13.525,0.03,-0.02,0.00,0.04
13.535,0.04,-0.02,0.01,0.05
13.545,0.06,-0.00,-0.02,0.06
13.555,0.07,-0.01,-0.01,0.07
13.565,0.04,-0.00,-0.01,0.04
13.576,0.03,-0.00,-0.00,0.03
13.585,0.01,-0.01,0.01,0.01
13.595,0.01,0.01,-0.01,0.02
13.605,0.01,0.01,-0.01,0.02
13.616,0.02,-0.01,-0.01,0.03
13.626,0.01,-0.01,-0.02,0.03
13.636,-0.01,-0.01,-0.02,0.02
13.646,-0.01,-0.00,-0.02,0.03
13.656,-0.00,0.01,-0.03,0.03
13.666,-0.01,-0.01,-0.03,0.04
13.676,0.01,-0.02,-0.01,0.02
13.686,0.01,-0.01,-0.03,0.04
13.696,-0.00,-0.01,-0.03,0.04
13.706,-0.01,-0.01,-0.02,0.03
13.716,-0.01,-0.01,-0.04,0.04
13.726,0.01,-0.02,-0.06,0.06
13.736,-0.01,-0.02,-0.04,0.04
13.746,-0.01,-0.01,-0.01,0.02
13.756,-0.03,-0.00,0.01,0.03
13.766,-0.03,-0.00,0.04,0.05
13.776,-0.02,-0.01,0.04,0.04
13.786,-0.01,-0.00,0.05,0.05
13.796,0.00,0.01,0.03,0.03
13.806,0.02,-0.00,0.07,0.07
13.817,0.03,-0.02,0.06,0.07
13.827,0.05,-0.03,-0.01,0.05
13.837,0.06,-0.05,-0.02,0.08
13.847,0.03,-0.05,-0.02,0.07
13.857,0.02,-0.04,-0.02,0.05
13.867,0.04,-0.01,-0.02,0.04
13.877,0.01,0.01,-0.02,0.02
13.887,-0.02,-0.00,0.02,0.03
13.897,-0.02,-0.01,0.04,0.05
13.907,-0.01,0.01,0.04,0.04
13.917,0.01,0.03,0.05,0.06
13.927,0.04,0.02,0.04,0.06
13.937,0.05,0.03,-0.01,0.06
13.947,0.03,-0.01,-0.02,0.04
13.957,0.03,-0.07,0.00,0.07
13.967,0.04,-0.10,0.03,0.11
13.977,0.06,-0.08,0.05,0.11
13.987,0.05,-0.05,0.09,0.11
13.998,0.05,-0.02,0.06,0.09
14.008,0.04,0.01,0.08,0.09
14.018,0.02,-0.00,0.06,0.07
14.028,-0.00,-0.01,0.07,0.07
14.038,-0.01,0.02,0.04,0.05
14.048,0.01,0.01,0.03,0.03
14.058,0.00,-0.02,0.04,0.04
14.068,0.00,-0.05,0.01,0.05
14.078,-0.01,-0.06,0.03,0.07
14.088,-0.03,-0.05,0.05,0.07
14.098,0.00,-0.03,0.07,0.08
14.108,0.03,-0.01,0.04,0.05
14.118,0.04,0.01,-0.00,0.04
14.128,0.04,0.03,-0.03,0.05
14.138,0.02,0.02,-0.03,0.04
14.148,0.01,0.01,-0.04,0.04
14.158,0.02,0.00,-0.02,0.03
14.169,0.04,-0.02,-0.01,0.05
14.178,0.05,-0.02,0.02,0.06
14.189,0.04,-0.04,0.04,0.08
14.199,0.04,-0.04,0.02,0.06
14.209,0.01,-0.04,0.02,0.04
14.219,0.00,-0.04,0.03,0.05
14.229,0.00,-0.03,0.03,0.04
14.239,0.01,-0.01,0.03,0.03
14.249,0.01,-0.00,0.01,0.02
14.259,0.03,0.01,-0.02,0.03
14.269,0.02,-0.00,-0.02,0.03
14.279,-0.00,-0.01,-0.04,0.04
14.289,0.00,-0.00,-0.05,0.05
14.299,-0.00,-0.00,-0.05,0.05
14.309,-0.00,-0.02,-0.02,0.03
14.319,0.01,-0.01,-0.01,0.02
14.329,0.01,-0.00,-0.03,0.04
14.340,0.01,-0.01,-0.01,0.01
14.350,0.01,-0.02,-0.00,0.02
14.360,0.01,0.00,-0.01,0.02
14.370,-0.01,-0.01,-0.02,0.02
14.380,-0.02,-0.04,0.01,0.04
14.390,-0.02,-0.02,-0.00,0.03
14.400,-0.05,-0.02,-0.01,0.05
14.410,-0.04,-0.01,-0.01,0.04
14.420,-0.03,0.02,-0.02,0.04
14.430,-0.02,0.02,-0.02,0.04
14.440,-0.03,0.03,0.00,0.04
14.450,-0.01,0.00,0.03,0.04
14.460,0.00,-0.01,0.06,0.06
14.470,0.04,-0.01,0.07,0.09
14.480,0.05,-0.03,0.04,0.07
14.490,0.06,-0.03,0.01,0.07
14.500,0.07,-0.05,-0.01,0.09
14.511,0.05,-0.04,-0.06,0.09
14.520,0.03,-0.00,-0.06,0.07
14.530,0.00,0.01,-0.02,0.03
14.541,-0.03,0.01,0.00,0.03
14.551,-0.03,0.01,0.04,0.05
14.561,-0.01,0.01,0.08,0.08
14.571,0.02,0.02,0.05,0.06
14.581,0.05,0.04,0.04,0.07
14.591,0.06,0.02,0.00,0.07
14.601,0.05,0.01,-0.05,0.07
14.611,0.05,-0.01,-0.03,0.06
14.621,0.02,-0.08,0.01,0.09
14.631,0.03,-0.08,0.01,0.09
14.641,0.03,-0.07,0.00,0.07
14.651,0.01,-0.04,-0.00,0.04
14.661,-0.01,0.01,0.01,0.02
14.671,-0.03,0.01,0.02,0.04
14.681,-0.02,0.02,0.01,0.03
14.691,-0.02,0.01,0.02,0.03
14.701,-0.03,-0.01,0.02,0.04
14.712,-0.04,-0.02,0.02,0.05
14.722,-0.01,-0.03,0.05,0.06
14.732,-0.01,-0.03,0.03,0.05
14.742,-0.01,-0.04,0.02,0.05
14.752,0.03,-0.02,0.02,0.04
14.762,0.06,-0.02,-0.02,0.06
14.772,0.07,-0.02,-0.03,0.08
14.782,0.05,0.00,-0.04,0.06
14.792,0.04,0.01,-0.04,0.06
14.802,0.02,0.02,-0.03,0.04
14.812,-0.00,0.01,-0.03,0.03
14.822,-0.01,-0.00,0.01,0.01
14.832,0.01,-0.02,0.02,0.03
14.842,0.02,-0.02,0.02,0.03
14.852,0.02,-0.03,0.03,0.05
14.862,0.04,-0.04,0.04,0.07
14.872,0.00,-0.03,0.03,0.04
14.883,0.01,-0.02,0.03,0.03
14.893,0.03,-0.01,0.01,0.03
14.903,0.04,0.01,-0.01,0.04
14.913,0.02,-0.00,-0.02,0.03
14.923,0.03,-0.01,-0.04,0.06
14.933,0.03,0.01,-0.06,0.07
14.943,0.00,-0.00,-0.06,0.06
14.953,-0.00,-0.01,-0.03,0.04
14.963,-0.02,-0.01,-0.03,0.03
14.973,-0.02,-0.01,-0.00,0.02
14.983,-0.02,-0.01,0.00,0.03
14.993,-0.00,-0.02,0.01,0.03
15.003,0.02,-0.00,0.01,0.02
15.013,0.04,-0.02,0.01,0.04
15.023,0.04,-0.02,0.02,0.05
15.033,0.04,-0.03,0.02,0.05
15.043,0.03,-0.04,0.03,0.06
15.053,0.02,-0.02,0.04,0.05
15.063,0.00,-0.01,0.04,0.04
15.073,-0.02,-0.00,0.07,0.07
15.084,-0.02,-0.00,0.08,0.09
15.094,-0.03,-0.01,0.07,0.08
15.104,-0.01,-0.00,0.05,0.05
15.114,-0.00,-0.01,0.02,0.03
15.124,0.01,-0.02,-0.01,0.02
15.134,0.04,-0.02,-0.06,0.07
15.144,0.04,-0.02,-0.09,0.10
15.154,0.01,-0.01,-0.07,0.07
15.164,0.01,-0.00,-0.02,0.02
15.174,-0.02,-0.01,-0.01,0.02
15.184,-0.03,-0.00,0.02,0.03
15.194,-0.03,0.00,0.05,0.06
15.204,-0.03,-0.01,0.06,0.07
15.214,0.01,0.00,0.04,0.05
15.225,0.04,0.03,-0.00,0.05
15.234,0.03,0.00,-0.02,0.04
15.245,0.03,-0.01,0.01,0.04
15.255,0.06,-0.05,0.05,0.09
15.265,0.07,-0.08,0.07,0.13
15.275,0.09,-0.07,0.07,0.13
15.285,0.07,-0.03,0.05,0.09
15.295,0.05,-0.00,0.00,0.05
15.305,-0.00,0.01,-0.05,0.05
15.315,-0.04,0.02,-0.05,0.07
15.325,-0.05,0.00,-0.01,0.05
15.335,-0.07,-0.00,0.03,0.07
15.345,-0.05,-0.01,0.04,0.07
15.355,-0.05,-0.00,0.02,0.05
15.365,-0.04,0.00,-0.01,0.04
15.375,-0.03,0.01,-0.02,0.04
15.385,-0.02,-0.01,-0.02,0.03
15.395,-0.01,-0.01,-0.03,0.03
15.405,0.01,-0.03,-0.01,0.04
15.415,0.04,-0.02,0.02,0.05
15.426,0.03,-0.00,0.04,0.05
15.436,0.03,0.00,0.02,0.03
15.446,0.02,0.02,-0.04,0.04
15.456,0.01,0.01,-0.10,0.10
15.466,-0.01,0.02,-0.10,0.10
15.476,-0.03,-0.02,-0.04,0.05
15.486,-0.03,-0.04,0.01,0.05
15.496,0.02,-0.04,0.08,0.09
15.506,0.06,0.00,0.08,0.10
15.516,0.08,0.02,0.03,0.08
15.526,0.07,0.02,-0.01,0.07
15.536,0.03,0.00,-0.04,0.05
15.546,-0.00,-0.00,-0.03,0.03
15.556,-0.02,-0.01,-0.00,0.03
15.566,-0.02,-0.04,0.01,0.05
15.576,-0.02,-0.02,0.05,0.05
15.586,-0.04,-0.01,0.07,0.08
15.596,0.01,0.02,-0.00,0.02
15.607,0.02,0.04,-0.12,0.12
15.617,0.00,0.00,-0.14,0.14
15.627,-0.00,-0.00,-0.11,0.11
15.637,0.00,0.01,-0.07,0.07
15.647,-0.00,0.01,-0.04,0.04
15.657,-0.03,0.02,-0.01,0.04
15.667,-0.07,0.01,-0.05,0.09
15.677,-0.09,0.04,-0.05,0.11
15.687,-0.09,0.05,-0.08,0.13
15.698,-0.06,0.04,-0.09,0.12
15.707,-0.03,0.03,-0.09,0.10
15.717,-0.00,0.03,-0.10,0.11
15.727,0.01,0.04,-0.06,0.07
15.737,0.01,0.02,-0.02,0.03
15.747,0.02,0.01,-0.05,0.05
15.757,0.01,0.01,-0.06,0.06
15.767,-0.02,0.01,-0.04,0.05
15.777,-0.05,0.01,-0.03,0.06
15.787,-0.04,0.02,-0.06,0.07
15.797,-0.04,0.03,-0.11,0.12
15.808,-0.06,0.03,-0.12,0.14
15.818,-0.10,0.06,-0.12,0.17
15.828,-0.12,0.08,-0.13,0.19
15.838,-0.11,0.09,-0.13,0.19
15.848,-0.10,0.07,-0.10,0.16
15.858,-0.08,0.05,-0.08,0.13
15.868,-0.08,0.01,-0.05,0.09
15.878,-0.02,-0.02,-0.02,0.04
15.888,0.01,-0.04,0.03,0.05
15.898,0.01,-0.04,0.06,0.07
15.908,0.01,-0.04,0.07,0.08
15.918,0.05,-0.01,0.02,0.06
15.928,0.07,-0.01,-0.04,0.09
15.938,0.11,-0.02,-0.08,0.14
15.948,0.10,-0.00,-0.13,0.16
15.959,0.05,0.02,-0.13,0.14
15.969,0.02,0.03,-0.10,0.11
15.978,-0.00,0.02,0.01,0.02
15.989,0.01,-0.01,0.09,0.09
15.998,0.04,-0.03,0.07,0.08
16.009,0.08,-0.05,0.02,0.09
16.018,0.08,-0.05,0.00,0.09
16.029,0.08,-0.06,0.00,0.09
16.039,0.03,-0.05,0.02,0.07
16.049,-0.01,-0.05,0.04,0.07
16.059,-0.03,-0.06,0.05,0.08
16.069,-0.05,-0.08,0.08,0.12
16.079,0.01,-0.05,0.03,0.06
16.089,0.08,-0.01,-0.08,0.11
16.099,0.09,0.00,-0.15,0.18
16.109,0.08,0.03,-0.18,0.20
16.119,0.05,0.06,-0.21,0.23
16.129,0.00,0.09,-0.23,0.24
16.139,-0.03,0.12,-0.26,0.29
16.149,-0.09,0.16,-0.31,0.36
16.160,-0.14,0.15,-0.33,0.39
16.170,-0.17,0.16,-0.33,0.40
16.180,-0.21,0.16,-0.34,0.43
16.190,-0.25,0.14,-0.33,0.43
16.200,-0.22,0.14,-0.29,0.39
16.210,-0.18,0.15,-0.28,0.37
16.220,-0.19,0.11,-0.26,0.34
16.230,-0.17,0.04,-0.15,0.23
16.240,-0.16,-0.00,-0.03,0.16
16.250,-0.14,-0.02,0.00,0.14
16.260,-0.14,-0.02,0.01,0.14
16.270,-0.13,-0.01,0.02,0.13
16.280,-0.10,-0.01,0.03,0.11
16.290,-0.02,-0.03,0.05,0.06
16.300,0.03,-0.01,0.06,0.07
16.310,0.02,-0.03,0.01,0.03
16.320,0.01,-0.04,0.03,0.05
16.331,-0.00,-0.03,0.09,0.09
16.341,-0.01,-0.06,0.13,0.14
16.351,-0.01,-0.05,0.08,0.10
16.361,-0.03,-0.04,0.05,0.07
16.371,-0.07,-0.05,0.02,0.09
16.381,-0.08,-0.07,0.06,0.13
16.391,-0.05,-0.05,0.14,0.16
16.401,-0.02,-0.04,0.16,0.17
16.411,0.05,-0.05,0.23,0.24
16.421,0.13,-0.04,0.18,0.23
16.431,0.23,-0.02,0.17,0.29
16.441,0.29,-0.01,0.19,0.35
16.451,0.29,0.01,0.20,0.35
16.461,0.27,0.02,0.13,0.30
16.471,0.18,-0.06,0.07,0.20
16.481,0.13,-0.16,0.09,0.22
16.491,0.11,-0.18,0.14,0.26
16.501,0.12,-0.21,0.17,0.29
16.512,0.10,-0.19,0.19,0.28
16.522,0.07,-0.13,0.15,0.21
16.532,0.10,-0.06,0.14,0.19
16.542,0.14,-0.04,0.17,0.23
16.552,0.11,-0.07,0.22,0.26
16.562,0.10,-0.12,0.26,0.30
16.572,0.06,-0.18,0.36,0.41
16.582,0.07,-0.23,0.38,0.45
16.592,0.08,-0.20,0.32,0.39
16.602,0.11,-0.14,0.21,0.27
16.612,0.15,-0.15,0.23,0.32
16.622,0.16,-0.12,0.18,0.27
16.632,0.14,-0.02,-0.07,0.15
16.642,0.12,0.01,-0.07,0.14
16.652,0.09,0.04,-0.04,0.10
16.662,0.01,0.06,-0.03,0.07
16.673,-0.06,0.05,-0.05,0.09
16.682,-0.01,0.04,-0.15,0.15
16.693,0.04,0.08,-0.11,0.14
16.702,0.07,0.08,0.04,0.11
16.713,0.16,0.08,0.09,0.21
16.723,0.15,0.05,0.12,0.20
16.733,0.14,0.02,0.14,0.20
16.743,0.17,0.02,0.06,0.18
16.753,0.16,0.00,-0.01,0.16
16.763,0.14,-0.02,-0.06,0.16
16.773,0.10,-0.03,-0.06,0.12
16.783,0.13,-0.04,0.01,0.14
16.793,0.19,-0.03,0.01,0.19
16.803,0.23,-0.04,0.05,0.24
16.813,0.18,-0.06,0.11,0.22
16.823,0.11,-0.10,0.11,0.19
16.833,0.08,-0.12,0.20,0.24
16.843,0.05,-0.13,0.22,0.26
16.853,-0.03,-0.12,0.16,0.20
16.863,-0.14,-0.10,0.12,0.21
16.874,-0.23,-0.10,0.12,0.28
16.883,-0.23,-0.09,0.13,0.28
16.894,-0.16,-0.07,0.06,0.19
16.904,-0.12,-0.03,0.06,0.14
16.914,-0.10,-0.01,0.02,0.10
16.924,-0.07,-0.01,-0.01,0.07
16.934,-0.06,-0.03,0.03,0.08
16.944,-0.01,-0.08,0.01,0.08
16.954,0.06,-0.07,-0.01,0.09
16.964,0.05,0.00,-0.10,0.11
16.974,-0.03,0.09,-0.19,0.21
16.984,-0.09,0.16,-0.19,0.27
16.994,-0.14,0.15,-0.24,0.31
17.004,-0.15,0.11,-0.24,0.30
17.014,-0.10,0.10,-0.18,0.23
17.024,-0.08,0.08,-0.08,0.14
17.034,-0.06,0.05,0.01,0.08
17.045,-0.03,0.02,0.04,0.05
17.055,0.01,0.00,0.02,0.02
17.065,0.06,0.04,-0.03,0.08
17.075,0.05,0.02,-0.03,0.06
17.085,-0.01,-0.01,-0.02,0.03
17.095,-0.03,-0.03,-0.04,0.06
17.105,0.01,0.00,-0.06,0.06
17.115,0.04,0.02,-0.02,0.05
17.125,0.06,0.04,0.05,0.09
17.135,0.07,0.03,0.09,0.12
17.145,0.07,-0.02,0.09,0.11
17.155,0.05,-0.09,0.05,0.12
17.166,0.07,-0.12,0.00,0.14
17.175,0.10,-0.12,-0.07,0.17
17.185,0.10,-0.06,-0.15,0.19
17.195,0.10,0.01,-0.15,0.18
17.205,0.15,0.08,-0.06,0.18
17.216,0.16,0.10,0.01,0.19
17.225,0.05,0.06,0.09,0.12
17.236,-0.03,-0.02,0.12,0.13
17.246,-0.04,-0.08,0.07,0.12
17.256,-0.04,-0.14,-0.02,0.14
17.266,-0.02,-0.15,-0.04,0.15
17.276,0.04,-0.12,-0.01,0.13
17.286,0.08,-0.05,0.02,0.10
17.296,0.09,-0.00,0.06,0.11
17.306,0.12,0.04,0.03,0.13
17.316,0.13,0.07,0.04,0.15
17.326,0.15,0.06,0.04,0.17
17.336,0.15,0.06,0.05,0.17
17.346,0.10,0.02,0.04,0.11
17.356,0.06,-0.02,0.00,0.06
17.366,0.05,-0.05,-0.01,0.07
17.377,0.08,-0.07,-0.00,0.11
17.386,0.08,-0.06,0.06,0.12
17.396,0.06,-0.04,0.10,0.12
17.406,0.05,0.03,0.15,0.16
17.417,-0.01,0.02,0.14,0.14
17.427,-0.06,-0.01,0.07,0.09
17.437,-0.08,-0.04,-0.00,0.08
17.447,-0.10,-0.10,-0.04,0.15
17.457,-0.08,-0.14,-0.03,0.17
17.467,0.01,-0.07,-0.15,0.17
17.477,0.01,0.03,-0.02,0.04
17.487,0.02,0.03,0.08,0.08
17.497,0.02,-0.01,0.08,0.09
17.507,-0.01,0.01,0.00,0.01
17.517,0.04,0.06,-0.02,0.08
17.527,0.06,0.16,-0.01,0.17
17.537,0.04,0.23,0.02,0.24
17.547,0.06,0.28,0.01,0.28
17.557,0.08,0.01,0.01,0.08
