time,ax,ay,az,atotal
0.000,0.09,0.20,-0.20,0.30
0.010,-0.07,0.27,-0.28,0.39
0.020,-0.14,0.12,-0.27,0.32
0.030,-0.16,-0.01,-0.21,0.27
0.040,-0.13,-0.09,-0.10,0.18
0.050,-0.12,-0.13,-0.00,0.18
0.060,-0.11,-0.10,0.05,0.16
0.070,-0.05,-0.00,0.05,0.07
0.080,-0.02,0.05,0.02,0.06
0.091,0.01,0.01,-0.06,0.06
0.101,0.05,-0.06,-0.07,0.11
0.111,0.13,-0.10,-0.00,0.17
0.121,0.22,-0.10,0.02,0.24
0.131,0.27,-0.04,-0.01,0.27
0.141,0.23,0.04,-0.04,0.24
0.151,0.19,0.07,-0.09,0.22
0.161,0.11,0.09,-0.09,0.17
0.171,0.05,0.03,-0.07,0.09
0.181,-0.01,-0.06,-0.08,0.10
0.191,-0.01,-0.12,-0.05,0.13
0.201,0.03,-0.13,-0.02,0.13
0.211,0.07,-0.10,0.02,0.12
0.221,0.05,-0.06,0.01,0.08
0.231,0.08,-0.03,0.01,0.09
0.241,0.11,-0.01,0.00,0.11
0.251,0.12,0.01,-0.01,0.12
0.261,0.14,0.01,-0.00,0.14
0.272,0.13,0.04,0.03,0.14
0.282,0.07,0.06,0.03,0.10
0.292,-0.03,0.04,0.05,0.07
0.302,-0.08,-0.04,0.05,0.10
0.312,-0.09,-0.09,0.10,0.16
0.322,-0.08,-0.08,0.14,0.18
0.332,-0.08,-0.04,0.12,0.15
0.342,-0.14,0.01,0.08,0.16
0.352,-0.16,0.02,0.08,0.18
0.362,-0.12,-0.03,0.12,0.17
0.372,-0.16,-0.07,0.18,0.25
0.382,-0.09,-0.06,0.22,0.25
0.392,0.00,-0.01,0.23,0.23
0.402,0.05,-0.04,0.24,0.25
0.412,0.08,-0.15,0.22,0.28
0.422,0.04,-0.22,0.22,0.31
0.432,-0.01,-0.16,0.20,0.26
0.442,0.03,-0.08,0.19,0.20
0.453,0.08,0.02,0.15,0.17
0.462,0.11,0.05,0.15,0.19
0.473,0.11,0.00,0.17,0.20
0.483,-0.05,0.06,0.20,0.22
0.493,0.14,-0.03,0.20,0.25
0.503,0.20,-0.09,0.20,0.30
0.513,0.07,-0.09,0.21,0.23
0.523,-0.18,0.12,0.24,0.32
0.533,-0.15,0.04,0.12,0.19
0.543,-0.14,-0.11,0.03,0.18
0.553,-0.16,-0.19,0.02,0.25
0.563,-0.07,-0.21,0.04,0.23
0.573,0.00,-0.03,0.10,0.10
0.583,0.12,0.03,-0.00,0.12
0.593,-0.01,-0.02,-0.07,0.08
0.603,-0.09,-0.16,-0.09,0.21
0.613,-0.07,-0.12,0.01,0.14
0.623,0.00,-0.04,0.07,0.08
0.634,0.03,-0.08,0.14,0.17
0.645,0.19,-0.07,0.15,0.25
0.654,0.35,-0.06,0.13,0.38
0.664,0.40,-0.15,0.04,0.43
0.674,0.64,-0.05,0.04,0.64
0.684,0.32,-0.12,-0.12,0.36
0.694,0.16,-0.14,-0.07,0.22
0.704,0.22,-0.07,0.00,0.23
0.714,0.20,0.02,0.01,0.20
0.724,0.24,0.13,-0.08,0.28
0.734,0.16,0.09,-0.13,0.22
0.744,0.23,0.06,-0.09,0.26
0.754,0.28,0.09,-0.04,0.29
0.764,0.42,0.11,0.01,0.44
0.774,0.49,0.09,-0.02,0.49
0.784,0.53,0.06,-0.01,0.53
0.794,0.49,0.00,-0.01,0.49
0.805,0.43,-0.07,0.00,0.43
0.815,0.34,-0.09,0.03,0.35
0.825,0.25,-0.15,0.06,0.30
0.835,0.23,-0.23,0.10,0.34
0.845,0.31,-0.26,0.10,0.42
0.855,0.31,-0.24,-0.02,0.40
0.865,0.23,-0.11,-0.10,0.27
0.875,0.24,0.10,-0.09,0.27
0.885,0.14,0.14,-0.14,0.24
0.895,-0.08,0.07,-0.13,0.17
0.905,-0.26,-0.00,-0.17,0.31
0.915,-0.59,0.13,-0.25,0.66
0.925,-0.43,0.40,-0.07,0.59
0.935,0.11,0.43,0.23,0.50
0.945,0.21,0.30,0.13,0.39
0.955,0.05,0.05,-0.07,0.10
0.965,-0.11,-0.24,-0.16,0.31
0.975,-0.06,-0.28,-0.16,0.33
0.985,0.02,-0.19,-0.11,0.22
0.995,0.02,-0.10,-0.10,0.15
1.006,-0.02,-0.09,-0.12,0.15
1.016,-0.02,-0.07,-0.09,0.11
1.026,0.11,0.02,-0.04,0.12
1.036,0.28,0.08,0.03,0.29
1.046,0.30,-0.01,0.07,0.31
1.056,0.28,-0.10,0.00,0.30
1.066,0.18,-0.16,-0.09,0.26
1.076,0.05,-0.11,-0.08,0.14
1.086,0.01,-0.08,0.06,0.11
1.096,-0.01,-0.08,0.28,0.29
1.106,0.07,-0.01,0.32,0.33
1.116,0.25,0.07,0.30,0.40
1.126,0.49,-0.05,0.35,0.61
1.136,0.66,-0.07,0.39,0.77
1.146,0.66,0.00,0.29,0.72
1.156,0.53,0.01,0.17,0.55
1.166,0.35,-0.07,0.14,0.38
1.177,0.20,-0.21,0.13,0.32
1.186,0.09,-0.27,0.06,0.29
1.197,-0.02,-0.17,0.00,0.17
1.207,-0.08,0.01,-0.03,0.09
1.217,-0.12,0.09,-0.07,0.17
1.227,-0.20,0.12,-0.09,0.25
1.237,-0.25,0.08,-0.01,0.26
1.247,-0.22,0.04,0.04,0.22
1.257,-0.12,0.03,0.01,0.12
1.267,-0.00,0.03,0.05,0.06
1.277,0.06,-0.03,0.13,0.15
1.287,0.06,-0.04,0.19,0.20
1.297,0.04,-0.05,0.15,0.16
1.307,-0.00,-0.12,0.08,0.14
1.317,-0.03,-0.20,0.02,0.20
1.327,-0.04,-0.21,-0.01,0.22
1.337,-0.04,-0.12,0.02,0.13
1.347,0.01,0.04,0.03,0.05
1.358,0.07,0.13,-0.02,0.15
1.368,0.08,0.14,-0.07,0.17
1.378,0.03,0.08,-0.14,0.16
1.388,-0.02,-0.04,-0.19,0.19
1.398,-0.02,-0.13,-0.19,0.23
1.408,-0.01,-0.15,-0.19,0.25
1.418,-0.02,-0.14,-0.20,0.24
1.428,-0.04,-0.05,-0.20,0.21
1.438,-0.04,0.04,-0.25,0.25
1.448,-0.10,0.08,-0.28,0.31
1.458,-0.10,0.12,-0.28,0.32
1.468,-0.07,0.17,-0.29,0.35
1.478,-0.04,0.19,-0.28,0.34
1.488,-0.04,0.16,-0.26,0.31
1.498,-0.07,0.11,-0.25,0.28
1.508,-0.12,0.05,-0.19,0.23
1.518,-0.14,0.03,-0.15,0.21
1.529,-0.14,0.03,-0.16,0.21
1.539,-0.12,0.02,-0.14,0.19
1.549,-0.11,-0.00,-0.13,0.17
1.559,-0.12,-0.03,-0.08,0.15
1.569,-0.20,-0.08,-0.03,0.22
1.579,-0.21,-0.11,-0.03,0.24
1.589,-0.20,-0.14,0.00,0.24
1.599,-0.17,-0.14,0.05,0.22
1.609,-0.11,-0.03,0.10,0.15
1.619,0.00,0.12,0.12,0.17
1.629,0.08,0.22,0.08,0.25
1.639,0.16,0.25,0.08,0.31
1.649,0.22,0.25,0.09,0.34
1.659,0.26,0.16,0.12,0.33
1.669,0.25,0.01,0.10,0.27
1.679,0.24,-0.11,0.08,0.28
1.690,0.23,-0.30,0.14,0.40
1.700,0.24,-0.43,0.22,0.54
1.709,0.20,-0.31,0.22,0.43
1.720,0.15,-0.13,0.18,0.27
1.729,0.09,-0.00,0.09,0.13
1.740,0.01,0.08,-0.05,0.10
1.750,-0.09,0.12,-0.15,0.22
1.760,-0.15,0.17,-0.20,0.30
1.770,-0.13,0.18,-0.21,0.31
1.780,-0.13,0.13,-0.19,0.27
1.790,-0.13,0.07,-0.17,0.23
1.800,-0.11,-0.01,-0.23,0.25
1.810,-0.14,-0.08,-0.27,0.32
1.820,-0.16,-0.06,-0.24,0.29
1.830,-0.14,0.01,-0.22,0.26
1.840,-0.12,0.03,-0.17,0.21
1.850,-0.10,0.03,-0.13,0.17
1.860,-0.09,0.04,-0.17,0.19
1.870,-0.12,0.06,-0.22,0.26
1.880,-0.20,0.09,-0.23,0.32
1.890,-0.20,0.14,-0.17,0.29
1.901,-0.16,0.14,-0.05,0.22
1.911,-0.08,0.11,0.06,0.15
1.921,0.03,0.02,0.14,0.15
1.931,0.16,-0.06,0.14,0.22
1.941,0.23,-0.16,0.14,0.31
1.951,0.31,-0.16,0.14,0.37
1.961,0.42,-0.16,0.17,0.48
1.971,0.47,-0.18,0.18,0.54
1.981,0.42,-0.14,0.15,0.47
1.991,0.38,-0.11,0.12,0.42
2.001,0.32,-0.10,0.13,0.36
2.011,0.31,-0.11,0.11,0.35
2.021,0.30,-0.12,0.09,0.33
2.031,0.27,-0.12,0.06,0.30
2.041,0.23,-0.07,0.02,0.24
2.051,0.18,-0.03,0.03,0.18
2.061,0.16,-0.00,0.05,0.16
2.071,0.18,0.05,0.05,0.20
2.082,0.21,0.08,0.02,0.22
2.092,0.18,0.07,0.01,0.20
2.102,0.16,0.05,-0.01,0.16
2.112,0.11,0.01,-0.03,0.11
2.122,0.08,-0.01,-0.04,0.09
2.132,0.05,-0.04,-0.06,0.09
2.142,0.05,-0.09,-0.08,0.13
2.152,0.06,-0.10,-0.07,0.14
2.162,0.04,-0.09,-0.07,0.12
2.172,0.06,-0.03,-0.04,0.08
2.182,0.07,0.01,-0.02,0.07
2.192,0.06,0.02,0.00,0.06
2.202,0.06,0.05,0.07,0.11
2.212,0.06,-0.02,0.13,0.14
2.222,0.11,-0.09,0.18,0.23
2.232,0.16,-0.12,0.18,0.27
2.242,0.15,-0.11,0.13,0.23
2.253,0.13,-0.10,0.06,0.17
2.263,0.06,-0.08,-0.00,0.10
2.273,0.00,-0.02,-0.02,0.03
2.283,-0.01,0.04,-0.02,0.04
2.293,0.01,0.07,-0.02,0.07
2.303,0.01,0.07,-0.05,0.09
2.313,0.03,0.04,-0.04,0.07
2.323,0.06,0.03,-0.02,0.07
2.333,0.03,-0.09,-0.03,0.10
2.343,0.04,-0.07,0.03,0.09
2.353,0.08,-0.06,0.07,0.13
2.363,0.09,-0.08,0.09,0.15
2.373,0.04,-0.07,0.08,0.11
2.383,0.02,-0.03,0.04,0.06
2.393,0.02,0.00,0.03,0.03
2.403,0.04,0.06,0.03,0.08
2.413,0.06,0.11,0.01,0.13
2.423,0.07,0.08,0.00,0.11
2.434,0.07,0.00,-0.00,0.07
2.444,0.06,-0.08,-0.03,0.10
2.454,0.06,-0.11,-0.05,0.14
2.464,0.07,-0.12,-0.04,0.14
2.474,0.04,-0.08,-0.03,0.10
2.484,0.03,-0.02,-0.02,0.04
2.494,0.02,0.02,0.01,0.03
2.504,0.03,0.08,0.03,0.09
2.514,0.05,0.09,0.05,0.11
2.524,0.06,0.05,0.02,0.08
2.534,0.09,0.03,0.01,0.09
2.544,0.12,0.01,0.01,0.12
2.554,0.17,-0.02,0.01,0.17
2.564,0.16,-0.02,0.02,0.16
2.574,0.12,-0.08,0.02,0.14
2.584,0.07,-0.15,0.03,0.16
2.594,0.04,-0.11,0.02,0.12
2.605,0.03,-0.02,-0.01,0.04
2.615,0.06,0.02,0.01,0.06
2.625,0.11,0.04,0.04,0.12
2.635,0.12,0.02,0.05,0.13
2.645,0.14,-0.03,0.03,0.14
2.655,0.13,-0.07,0.00,0.15
2.665,0.11,-0.07,-0.05,0.14
2.675,0.09,-0.05,-0.06,0.12
2.685,0.06,-0.03,-0.06,0.09
2.695,0.04,0.01,-0.06,0.08
2.705,0.02,0.03,-0.07,0.08
2.715,-0.04,-0.01,-0.07,0.08
2.725,-0.05,0.01,-0.06,0.08
2.735,0.01,0.08,-0.05,0.09
2.745,0.05,0.10,-0.07,0.14
2.755,0.09,0.06,-0.08,0.14
2.765,0.05,-0.01,-0.07,0.08
2.775,0.03,-0.07,-0.06,0.09
2.785,0.01,-0.07,-0.05,0.09
2.796,-0.00,-0.07,-0.05,0.09
2.806,0.03,-0.06,-0.05,0.08
2.816,0.05,-0.05,-0.05,0.09
2.826,0.04,-0.04,-0.05,0.07
2.836,0.03,0.00,-0.01,0.04
2.846,0.02,0.02,-0.01,0.03
2.856,0.03,0.03,-0.04,0.05
2.866,0.03,0.03,-0.07,0.08
2.876,0.04,-0.02,-0.09,0.10
2.886,0.02,-0.06,-0.10,0.12
2.896,0.03,-0.07,-0.09,0.12
2.906,0.02,-0.05,-0.07,0.09
2.916,-0.02,-0.00,-0.04,0.05
2.926,0.01,0.03,-0.00,0.04
2.936,0.05,0.07,-0.02,0.09
2.946,0.07,0.04,-0.05,0.10
2.956,0.08,-0.00,-0.07,0.11
2.966,0.06,-0.02,-0.07,0.09
2.976,0.04,-0.05,-0.02,0.07
2.987,0.03,-0.04,-0.02,0.05
2.997,0.04,-0.01,-0.04,0.05
3.007,0.03,-0.01,-0.05,0.06
3.017,0.04,-0.03,-0.04,0.06
3.027,0.03,-0.04,-0.01,0.05
3.037,0.04,-0.03,-0.01,0.05
3.047,0.08,-0.01,-0.01,0.08
3.057,0.12,0.00,-0.01,0.12
3.067,0.12,-0.00,-0.03,0.13
3.077,0.10,-0.02,-0.03,0.11
3.087,0.08,-0.04,-0.03,0.09
3.097,0.06,-0.04,0.01,0.08
3.107,0.06,-0.07,0.03,0.10
3.117,0.04,-0.03,0.02,0.05
3.127,0.01,0.01,-0.03,0.03
3.137,0.03,0.06,-0.05,0.08
3.147,0.02,0.04,-0.07,0.08
3.157,-0.04,0.04,-0.09,0.10
3.168,-0.07,0.04,-0.04,0.09
3.178,-0.03,-0.02,0.03,0.05
3.188,-0.00,-0.08,0.09,0.12
3.198,0.03,-0.13,0.07,0.15
3.208,0.05,-0.10,0.05,0.13
3.218,0.07,-0.01,0.08,0.11
3.228,0.10,0.03,0.07,0.13
3.238,0.14,0.04,0.07,0.16
3.248,0.13,0.01,0.05,0.14
3.258,0.07,0.01,0.02,0.08
3.268,0.07,-0.01,0.01,0.08
3.278,0.07,-0.05,0.01,0.09
3.288,0.06,-0.04,0.02,0.08
3.298,0.03,-0.02,0.00,0.03
3.308,-0.03,-0.01,0.01,0.03
3.318,-0.07,0.00,0.02,0.07
3.328,-0.03,0.02,0.02,0.04
3.339,0.02,0.01,0.05,0.06
3.349,0.11,-0.05,0.08,0.14
3.359,0.16,-0.11,0.07,0.20
3.369,0.18,-0.11,0.05,0.22
3.379,0.19,-0.08,0.02,0.21
3.389,0.17,-0.05,0.01,0.18
3.399,0.13,-0.01,0.04,0.14
3.409,0.14,0.04,0.05,0.15
3.419,0.09,0.04,0.04,0.11
3.429,0.04,0.01,0.05,0.06
3.439,0.01,-0.03,0.04,0.05
3.449,0.05,-0.06,0.02,0.08
3.459,0.05,-0.06,0.02,0.09
3.469,0.05,-0.07,0.00,0.08
3.479,0.04,-0.03,-0.01,0.05
3.489,0.03,-0.01,-0.01,0.03
3.499,0.01,-0.00,-0.02,0.02
3.510,0.02,0.02,-0.05,0.05
3.520,0.03,0.01,-0.06,0.07
3.530,0.05,0.02,-0.08,0.10
3.540,0.07,0.03,-0.08,0.11
3.550,0.07,0.01,-0.06,0.09
3.560,0.06,-0.03,-0.04,0.08
3.570,0.04,-0.05,-0.02,0.07
3.580,0.00,-0.03,-0.00,0.03
3.590,-0.01,-0.03,-0.00,0.03
3.600,0.02,-0.02,0.01,0.03
3.610,0.03,-0.05,0.01,0.06
3.620,0.02,-0.06,-0.01,0.06
3.630,0.04,-0.01,-0.00,0.04
3.640,0.08,0.01,0.02,0.08
3.650,0.09,-0.03,0.05,0.10
3.660,0.08,-0.05,0.03,0.10
3.670,0.06,-0.05,0.04,0.08
3.680,0.03,-0.05,0.03,0.07
3.690,0.03,-0.04,0.07,0.08
3.700,0.06,0.02,0.08,0.10
3.711,0.06,0.03,0.07,0.10
3.721,0.05,0.00,0.05,0.07
3.731,0.05,-0.04,-0.02,0.07
3.741,0.06,-0.04,-0.04,0.08
3.751,0.04,-0.06,-0.03,0.07
3.761,0.04,-0.07,-0.00,0.08
3.771,0.03,-0.05,0.02,0.06
3.781,0.00,-0.05,0.04,0.07
3.791,-0.03,-0.03,0.04,0.06
3.801,-0.03,-0.03,0.05,0.07
3.811,-0.02,-0.01,0.00,0.02
3.821,0.01,-0.00,-0.01,0.01
3.831,0.02,-0.01,-0.01,0.02
3.841,0.03,-0.01,0.05,0.05
3.851,0.06,-0.02,0.11,0.12
3.861,0.08,-0.02,0.13,0.15
3.872,0.08,-0.03,0.11,0.14
3.882,0.10,-0.02,0.08,0.13
3.892,0.11,0.01,0.04,0.12
3.902,0.12,0.02,0.02,0.12
3.912,0.09,0.01,0.02,0.09
3.922,0.09,-0.03,0.06,0.11
3.932,0.07,-0.07,0.09,0.13
3.942,0.06,-0.08,0.09,0.13
3.952,0.08,-0.08,0.08,0.13
3.962,0.08,-0.06,0.05,0.11
3.972,0.07,-0.03,0.04,0.09
3.982,0.04,-0.02,0.07,0.08
3.992,0.03,-0.02,0.07,0.08
4.002,0.02,-0.02,0.04,0.05
4.012,0.01,-0.02,0.02,0.03
4.022,0.03,-0.03,-0.01,0.04
4.032,0.02,-0.02,-0.04,0.05
4.042,-0.00,-0.00,-0.05,0.05
4.052,0.03,0.03,-0.03,0.05
4.063,0.05,0.02,-0.00,0.06
4.073,0.08,0.01,0.02,0.08
4.083,0.08,-0.01,0.03,0.08
4.093,0.06,-0.06,0.02,0.09
4.103,0.06,-0.09,0.03,0.11
4.113,0.07,-0.08,0.06,0.12
4.123,0.08,-0.07,0.07,0.13
4.133,0.06,-0.05,0.05,0.10
4.143,0.02,-0.04,0.04,0.06
4.153,0.00,-0.05,0.05,0.07
4.163,-0.02,-0.00,0.03,0.04
4.173,-0.01,0.05,0.03,0.06
4.183,0.03,0.02,0.03,0.05
4.193,0.05,0.01,0.05,0.07
4.203,0.05,0.02,0.05,0.08
4.213,0.05,-0.04,0.03,0.07
4.223,0.04,-0.10,0.06,0.12
4.234,0.04,-0.07,0.10,0.13
4.244,0.07,-0.04,0.08,0.11
4.254,0.06,-0.01,0.08,0.10
4.264,0.04,0.02,0.07,0.08
4.274,0.01,0.03,0.03,0.05
4.284,0.02,0.01,0.01,0.03
4.294,0.02,-0.03,-0.03,0.04
4.304,-0.01,-0.05,-0.04,0.06
4.314,-0.00,-0.07,-0.03,0.07
4.324,-0.01,-0.03,-0.06,0.06
4.334,-0.02,0.04,-0.02,0.05
4.344,-0.02,0.08,-0.00,0.08
4.354,-0.00,0.08,0.04,0.09
4.364,-0.00,0.08,0.04,0.09
4.374,0.01,0.04,-0.01,0.04
4.384,-0.01,-0.04,-0.06,0.07
4.394,-0.01,-0.07,-0.06,0.09
4.405,-0.00,-0.04,-0.06,0.07
4.415,0.04,-0.02,0.01,0.04
4.425,0.03,-0.01,0.00,0.03
4.435,0.00,-0.03,-0.02,0.03
4.445,-0.02,-0.02,-0.04,0.04
4.455,0.00,0.01,-0.08,0.08
4.465,-0.01,0.03,-0.12,0.12
4.475,0.01,0.01,-0.13,0.13
4.485,0.03,0.01,-0.10,0.11
4.495,0.04,0.03,-0.08,0.10
4.505,0.01,-0.09,-0.13,0.16
4.515,-0.03,-0.12,-0.09,0.15
4.525,-0.02,-0.07,-0.07,0.10
4.535,-0.03,-0.03,-0.08,0.09
4.545,-0.02,0.03,-0.10,0.10
4.555,-0.04,-0.01,-0.12,0.13
4.565,-0.02,-0.01,-0.07,0.07
4.575,0.03,0.01,-0.03,0.04
4.585,0.08,0.05,-0.03,0.09
4.595,0.09,0.03,-0.04,0.10
4.606,0.10,0.01,-0.05,0.11
4.616,0.09,-0.04,-0.05,0.12
4.626,0.09,-0.06,-0.05,0.12
4.636,0.08,-0.08,-0.00,0.11
4.646,0.11,-0.06,-0.01,0.12
4.656,0.08,-0.03,-0.03,0.10
4.666,0.06,-0.01,-0.05,0.08
4.676,0.04,0.07,-0.04,0.09
4.686,0.05,0.08,-0.02,0.10
4.696,0.04,0.04,-0.01,0.06
4.706,0.04,-0.03,0.02,0.05
4.716,0.02,-0.07,0.00,0.07
4.726,0.03,-0.10,-0.04,0.11
4.736,0.02,-0.08,-0.07,0.11
4.746,0.01,-0.04,-0.10,0.11
4.756,0.01,0.02,-0.09,0.09
4.766,-0.01,0.02,-0.08,0.08
4.777,-0.04,0.03,-0.06,0.08
4.787,-0.05,0.05,-0.03,0.08
4.797,-0.01,0.04,-0.03,0.05
4.807,0.02,0.01,-0.03,0.04
4.817,0.08,0.01,-0.04,0.09
4.827,0.11,0.03,-0.04,0.12
4.837,0.13,0.03,0.02,0.14
4.847,0.16,-0.03,0.06,0.18
4.857,0.13,-0.11,0.09,0.19
4.867,0.13,-0.15,0.09,0.21
4.877,0.12,-0.13,0.08,0.19
4.887,0.10,-0.08,0.04,0.13
4.897,0.09,-0.01,0.01,0.09
4.907,0.08,0.03,0.02,0.09
4.917,0.05,0.02,0.02,0.06
4.927,0.03,-0.00,0.01,0.03
4.937,0.03,-0.02,-0.03,0.04
4.947,0.03,-0.02,-0.02,0.04
4.957,0.03,-0.01,-0.02,0.04
4.968,0.03,-0.00,-0.04,0.05
4.978,-0.00,0.00,0.01,0.01
4.988,-0.03,-0.05,0.03,0.07
4.998,-0.01,-0.07,0.02,0.08
5.008,0.05,-0.01,-0.00,0.05
5.018,0.09,0.02,-0.01,0.09
5.028,0.10,-0.00,-0.01,0.10
5.038,0.13,-0.03,0.00,0.14
5.048,0.13,-0.03,0.03,0.14
5.058,0.11,-0.06,0.05,0.14
5.068,0.12,-0.06,0.06,0.14
5.078,0.12,-0.02,0.07,0.14
5.088,0.12,-0.02,0.03,0.13
5.098,0.12,-0.02,0.04,0.13
5.108,0.10,-0.03,0.02,0.11
5.119,0.11,-0.03,0.00,0.11
5.128,0.10,-0.02,0.00,0.10
5.139,0.08,0.00,-0.01,0.08
5.148,0.06,0.02,-0.01,0.07
5.159,0.04,-0.00,-0.04,0.06
5.169,0.03,0.01,-0.05,0.06
5.179,-0.00,-0.00,-0.04,0.04
5.189,-0.02,-0.01,-0.04,0.04
5.199,-0.04,0.00,-0.01,0.04
5.209,-0.01,-0.00,0.02,0.02
5.219,-0.01,-0.00,0.01,0.02
5.229,0.00,-0.01,0.02,0.02
5.239,0.02,-0.03,-0.01,0.03
5.249,0.00,-0.04,-0.02,0.04
5.259,0.02,-0.05,-0.04,0.07
5.269,0.03,-0.04,-0.06,0.07
5.279,0.02,-0.02,-0.07,0.07
5.289,0.00,0.00,-0.06,0.06
5.299,-0.02,-0.02,-0.07,0.07
5.309,-0.00,-0.03,-0.06,0.06
5.319,-0.00,0.00,-0.05,0.05
5.329,-0.01,0.03,-0.04,0.05
5.340,0.01,0.06,-0.01,0.06
5.350,0.04,0.05,-0.01,0.07
5.360,0.06,0.02,-0.01,0.06
5.370,0.06,-0.03,-0.02,0.07
5.380,0.04,-0.06,-0.01,0.07
5.390,0.02,-0.08,0.03,0.08
5.400,0.04,-0.07,0.04,0.09
5.410,0.04,-0.05,0.03,0.07
5.420,0.06,-0.03,-0.00,0.07
5.430,0.05,-0.02,-0.01,0.06
5.440,0.02,-0.01,-0.00,0.02
5.450,0.03,-0.02,-0.03,0.05
5.460,-0.00,-0.01,-0.05,0.06
5.470,-0.01,-0.01,-0.08,0.09
5.480,0.04,0.00,-0.09,0.10
5.490,0.02,-0.01,-0.08,0.09
5.501,-0.02,0.01,-0.05,0.06
5.511,-0.02,0.02,-0.01,0.03
5.521,-0.04,0.03,0.00,0.05
5.531,-0.03,0.01,-0.02,0.03
5.541,-0.03,0.00,-0.03,0.04
5.551,-0.00,0.00,-0.02,0.02
5.561,0.04,-0.03,0.00,0.05
5.571,0.05,-0.06,0.00,0.08
5.581,0.04,-0.07,-0.00,0.08
5.591,0.03,-0.08,-0.00,0.08
5.601,0.04,-0.04,-0.02,0.06
5.611,0.04,-0.03,-0.04,0.06
5.621,-0.00,-0.02,-0.03,0.04
5.631,-0.02,0.00,-0.00,0.02
5.641,0.01,0.03,0.03,0.04
5.651,0.03,0.02,0.05,0.06
5.661,0.07,-0.01,0.03,0.08
5.671,0.08,-0.01,0.02,0.09
5.682,0.09,0.02,0.03,0.10
5.692,0.10,0.01,0.03,0.10
5.702,0.09,-0.02,0.05,0.11
5.712,0.09,-0.06,0.06,0.12
5.722,0.07,-0.06,0.07,0.12
5.732,0.06,-0.03,0.06,0.09
5.742,0.04,-0.03,0.06,0.08
5.752,0.03,-0.03,0.07,0.08
5.762,0.01,-0.04,0.08,0.09
5.772,0.01,-0.04,0.07,0.08
5.782,0.03,-0.06,0.03,0.07
5.792,0.04,-0.05,-0.02,0.07
5.802,0.04,-0.03,-0.08,0.10
5.812,0.03,0.02,-0.09,0.09
5.822,0.02,0.00,-0.05,0.05
5.832,0.00,-0.01,-0.01,0.01
5.842,-0.00,0.00,0.01,0.01
5.852,0.02,0.01,0.02,0.03
5.862,0.00,-0.01,0.01,0.02
5.873,0.02,-0.04,-0.00,0.04
5.883,0.04,-0.01,-0.03,0.05
5.893,0.07,0.01,-0.06,0.09
5.903,0.09,0.01,-0.05,0.10
5.913,0.03,-0.01,-0.03,0.04
5.923,-0.01,-0.03,0.01,0.03
5.933,-0.01,-0.03,0.01,0.04
5.943,0.03,-0.02,-0.02,0.04
5.953,0.02,-0.02,-0.07,0.08
5.963,-0.02,-0.02,-0.06,0.07
5.973,-0.05,-0.03,-0.02,0.07
5.983,-0.05,-0.02,-0.01,0.05
5.993,-0.03,-0.04,-0.00,0.05
6.003,0.01,-0.03,-0.01,0.03
6.013,0.08,-0.03,-0.01,0.09
6.023,0.03,-0.05,-0.01,0.05
6.033,-0.03,-0.01,0.03,0.04
6.044,-0.06,0.03,0.02,0.07
6.054,-0.05,0.03,0.00,0.06
6.064,-0.03,0.04,-0.01,0.05
6.074,-0.00,0.04,0.00,0.04
6.084,0.06,0.01,0.05,0.08
6.094,0.09,-0.03,0.07,0.11
6.104,0.09,-0.04,0.06,0.11
6.114,0.06,-0.07,0.05,0.10
6.124,0.05,-0.08,0.06,0.11
6.134,0.06,-0.07,0.04,0.10
6.144,0.08,-0.07,0.04,0.11
6.154,0.07,-0.06,0.05,0.10
6.164,0.05,-0.02,0.06,0.08
6.174,0.05,0.01,0.06,0.08
6.184,0.04,0.02,0.05,0.07
6.194,-0.01,0.03,0.03,0.04
6.204,-0.07,0.01,0.02,0.07
6.214,-0.09,-0.02,-0.00,0.09
6.225,-0.09,-0.01,-0.06,0.11
6.235,-0.06,0.01,-0.09,0.11
6.245,-0.02,0.03,-0.09,0.10
6.255,0.01,0.04,-0.09,0.10
6.265,0.01,0.02,-0.07,0.07
6.275,0.02,-0.02,-0.04,0.05
6.285,0.01,-0.05,0.01,0.05
6.295,-0.00,-0.05,0.06,0.08
6.305,-0.01,-0.05,0.05,0.07
6.315,-0.01,-0.04,0.03,0.06
6.325,-0.00,-0.03,-0.01,0.03
6.335,0.01,-0.01,0.01,0.02
6.345,0.02,-0.01,-0.02,0.03
6.355,0.02,-0.01,-0.04,0.05
6.365,0.03,-0.00,-0.03,0.04
6.375,0.00,-0.00,-0.03,0.03
6.385,-0.04,0.01,-0.02,0.05
6.395,-0.05,0.04,-0.02,0.06
6.406,-0.01,0.04,-0.02,0.05
6.415,0.01,0.01,-0.03,0.03
6.426,0.02,-0.02,-0.05,0.05
6.436,0.03,-0.03,-0.07,0.09
6.446,0.02,-0.05,-0.05,0.07
6.456,0.01,-0.07,0.00,0.07
6.466,-0.00,-0.06,0.03,0.07
6.476,-0.00,-0.02,0.03,0.04
6.486,-0.01,0.00,0.03,0.03
6.496,0.00,0.02,0.04,0.05
6.506,0.01,0.03,0.04,0.06
6.516,0.00,0.02,0.03,0.04
6.526,-0.02,-0.00,-0.02,0.02
6.536,-0.00,-0.03,-0.03,0.04
6.546,0.03,-0.01,-0.04,0.05
6.556,0.02,0.01,-0.06,0.06
6.566,0.00,0.01,-0.07,0.07
6.576,-0.01,0.01,-0.06,0.06
6.587,0.01,-0.00,-0.05,0.05
6.597,0.00,0.00,-0.01,0.01
6.607,0.02,-0.01,0.03,0.04
6.617,0.04,-0.05,0.07,0.09
6.627,0.05,-0.07,0.08,0.12
6.637,0.06,-0.06,0.08,0.11
6.647,0.06,-0.07,0.08,0.12
6.657,0.08,-0.05,0.04,0.10
6.667,0.08,-0.04,0.03,0.10
6.677,0.07,-0.07,0.03,0.10
6.687,0.08,-0.04,0.00,0.09
6.697,0.06,-0.02,-0.05,0.08
6.707,0.04,-0.02,-0.09,0.10
6.717,0.03,-0.00,-0.09,0.09
6.727,-0.00,0.01,-0.07,0.07
6.737,-0.00,0.03,-0.03,0.04
6.747,0.01,0.03,-0.01,0.03
6.757,0.02,0.01,0.02,0.03
6.767,0.03,0.00,0.02,0.04
6.778,0.01,-0.01,-0.01,0.02
6.788,0.00,-0.02,-0.00,0.02
6.798,0.05,-0.03,0.04,0.07
6.808,0.06,-0.05,0.03,0.08
6.818,0.06,-0.06,0.04,0.09
6.828,0.07,-0.05,0.02,0.09
6.838,0.08,-0.06,0.01,0.10
6.848,0.08,-0.05,0.02,0.10
6.858,0.06,-0.02,-0.01,0.07
6.868,0.07,0.00,-0.01,0.07
6.878,0.06,0.00,0.01,0.06
6.888,0.04,-0.00,0.01,0.04
6.898,-0.01,0.00,0.01,0.01
6.908,-0.02,-0.01,0.05,0.06
6.918,-0.02,-0.04,0.05,0.07
6.928,0.00,-0.04,0.06,0.07
6.939,0.06,-0.01,0.02,0.06
6.949,0.09,0.01,0.01,0.10
6.959,0.10,-0.02,-0.00,0.11
6.969,0.09,-0.02,0.03,0.10
6.979,0.08,-0.05,0.05,0.11
6.989,0.08,-0.08,0.04,0.12
6.999,0.08,-0.06,0.02,0.10
7.009,0.06,-0.01,0.03,0.07
7.019,0.03,0.01,0.02,0.04
7.029,0.02,0.00,0.05,0.06
7.039,0.00,-0.00,0.04,0.04
7.049,0.01,0.01,0.02,0.03
7.059,0.01,-0.00,0.00,0.01
7.069,0.01,-0.03,0.01,0.03
7.079,0.01,-0.03,-0.01,0.03
7.089,0.02,-0.03,-0.02,0.04
7.099,0.04,-0.03,-0.02,0.06
7.109,0.03,-0.01,-0.02,0.03
7.119,0.00,-0.01,-0.01,0.02
7.130,-0.00,-0.04,-0.01,0.04
7.140,0.00,-0.04,0.02,0.04
7.150,-0.01,-0.02,0.03,0.04
7.160,0.02,0.00,0.02,0.02
7.170,0.01,-0.01,0.02,0.02
7.180,0.02,-0.01,0.03,0.04
7.190,0.04,-0.02,0.06,0.07
7.200,0.10,-0.03,0.07,0.12
7.210,0.11,-0.09,0.05,0.15
7.220,0.12,-0.06,0.03,0.14
7.230,0.11,-0.01,-0.02,0.11
7.240,0.06,0.02,-0.08,0.10
7.250,0.03,0.03,-0.09,0.10
7.260,-0.02,0.02,-0.06,0.07
7.270,-0.04,0.02,-0.06,0.08
7.280,-0.05,0.01,-0.04,0.06
7.290,-0.07,-0.02,0.00,0.07
7.301,-0.05,0.00,0.03,0.06
7.311,-0.01,-0.03,0.08,0.09
7.321,0.03,-0.03,0.10,0.11
7.331,0.08,-0.07,0.10,0.14
7.341,0.10,-0.10,0.09,0.16
7.351,0.11,-0.09,0.03,0.14
7.361,0.12,-0.05,0.01,0.13
7.371,0.13,-0.00,0.02,0.13
7.381,0.11,0.02,0.00,0.11
7.391,0.07,-0.00,-0.01,0.07
7.401,0.02,-0.04,-0.03,0.05
7.411,-0.02,-0.01,-0.03,0.03
7.421,-0.04,0.04,-0.02,0.06
7.431,-0.03,0.04,-0.00,0.05
7.441,0.00,0.03,0.02,0.04
7.451,0.03,0.00,0.03,0.04
7.461,0.08,-0.05,0.04,0.10
7.471,0.11,-0.07,0.05,0.14
7.481,0.11,-0.05,0.07,0.14
7.492,0.12,-0.03,0.08,0.14
7.502,0.10,-0.02,0.04,0.11
7.512,0.07,-0.04,0.06,0.10
7.522,0.06,-0.06,0.08,0.12
7.532,0.08,-0.07,0.09,0.14
7.542,0.12,-0.07,0.07,0.15
7.552,0.12,-0.04,0.02,0.13
7.562,0.07,-0.00,-0.04,0.08
7.572,0.02,0.04,-0.02,0.05
7.582,-0.01,0.05,0.01,0.05
7.592,-0.03,0.04,0.04,0.06
7.602,-0.01,-0.00,0.05,0.05
7.612,0.01,-0.02,0.04,0.04
7.622,-0.00,-0.03,0.03,0.04
7.633,-0.01,-0.03,0.06,0.07
7.642,-0.03,-0.06,0.06,0.09
7.652,-0.02,-0.08,0.04,0.10
7.662,0.02,-0.03,0.03,0.05
7.673,0.08,0.03,0.03,0.09
7.683,0.05,0.01,0.03,0.06
7.693,-0.00,-0.03,0.01,0.03
7.703,-0.01,-0.05,-0.06,0.08
7.713,0.02,-0.04,-0.14,0.15
7.723,0.01,0.01,-0.15,0.15
7.733,-0.05,0.01,-0.21,0.22
7.743,-0.09,0.02,-0.21,0.22
7.753,-0.11,0.03,-0.26,0.29
7.763,-0.11,0.01,-0.26,0.28
7.773,-0.13,-0.01,-0.19,0.23
7.783,-0.15,0.01,-0.14,0.21
7.793,-0.14,0.00,-0.13,0.20
7.803,-0.13,0.02,-0.10,0.16
7.813,-0.08,0.02,-0.07,0.11
7.823,-0.03,-0.02,-0.01,0.04
7.833,-0.01,-0.06,0.07,0.09
7.843,-0.01,-0.09,0.12,0.15
7.854,0.00,-0.08,0.08,0.12
7.864,0.04,-0.06,-0.03,0.07
7.874,0.05,-0.02,-0.09,0.11
7.884,0.02,0.03,-0.10,0.10
7.894,-0.07,0.03,-0.07,0.10
7.904,-0.17,-0.03,-0.02,0.17
7.914,-0.26,-0.11,-0.02,0.28
7.924,-0.30,-0.17,-0.13,0.37
7.934,-0.32,-0.20,-0.21,0.43
7.944,-0.31,-0.16,-0.28,0.45
7.954,-0.29,-0.08,-0.41,0.51
7.964,-0.29,-0.06,-0.50,0.58
7.974,-0.28,-0.06,-0.56,0.63
7.984,-0.29,-0.05,-0.65,0.71
7.994,-0.29,-0.06,-0.69,0.74
8.004,-0.32,-0.05,-0.75,0.82
8.014,-0.38,-0.04,-0.81,0.89
8.024,-0.45,-0.01,-0.85,0.96
8.035,-0.52,-0.00,-0.84,0.99
8.045,-0.56,-0.02,-0.80,0.98
8.055,-0.54,-0.05,-0.74,0.92
8.065,-0.54,-0.09,-0.60,0.81
8.075,-0.53,-0.13,-0.50,0.74
8.085,-0.45,-0.15,-0.47,0.66
8.095,-0.40,-0.14,-0.48,0.64
8.105,-0.36,-0.17,-0.53,0.67
8.115,-0.39,-0.25,-0.61,0.77
8.125,-0.50,-0.35,-0.72,0.94
8.135,-0.60,-0.35,-0.80,1.06
8.145,-0.48,-0.23,-0.64,0.84
8.155,-0.31,-0.17,-0.50,0.62
8.165,-0.30,-0.26,-0.35,0.53
8.175,-0.32,-0.40,-0.23,0.56
8.185,-0.32,-0.67,-0.24,0.78
8.195,-0.30,-0.92,-0.28,1.00
8.206,-0.24,-1.00,-0.37,1.09
8.216,-0.21,-1.00,-0.43,1.11
8.226,-0.24,-1.04,-0.38,1.13
8.236,-0.26,-1.08,-0.28,1.15
8.246,-0.22,-1.18,-0.10,1.20
8.256,-0.16,-1.24,0.08,1.25
8.266,-0.00,-1.21,0.02,1.21
8.276,0.08,-1.26,-0.08,1.27
8.286,0.15,-1.29,-0.14,1.30
8.296,0.24,-1.24,-0.11,1.27
8.306,0.19,-1.29,-0.01,1.31
8.316,0.24,-1.40,0.27,1.45
8.326,0.41,-1.55,0.57,1.70
8.336,0.57,-1.53,0.59,1.74
8.346,0.64,-1.39,0.44,1.59
8.356,0.58,-1.37,0.28,1.52
8.366,0.51,-1.47,0.33,1.59
8.376,0.37,-1.48,0.15,1.54
8.387,0.26,-1.43,0.12,1.46
8.397,0.22,-1.22,0.25,1.26
8.407,0.34,-0.94,0.38,1.07
8.417,0.37,-0.61,0.23,0.75
8.427,0.24,-0.45,0.15,0.54
8.437,0.27,-0.41,0.20,0.54
8.447,0.35,-0.52,0.36,0.72
8.457,0.39,-0.76,0.56,1.02
8.467,0.33,-0.92,0.35,1.04
8.477,0.28,-1.06,0.38,1.16
8.487,0.24,-1.17,0.63,1.35
8.497,0.29,-1.11,0.69,1.34
8.507,0.48,-0.95,0.59,1.22
8.517,0.85,-0.68,0.55,1.21
8.527,1.20,-0.37,0.47,1.34
8.537,1.33,-0.14,0.21,1.35
8.547,1.09,-0.18,-0.08,1.10
8.557,0.73,-0.41,-0.15,0.85
8.568,0.50,-0.60,-0.12,0.79
8.578,0.10,-0.57,-0.21,0.62
8.588,-0.29,-0.24,-0.33,0.50
8.598,-0.48,0.12,-0.17,0.52
8.608,-0.53,0.07,0.10,0.54
8.618,-0.41,-0.18,0.34,0.56
8.628,-0.22,-0.41,0.32,0.56
8.638,-0.10,-0.66,0.24,0.71
8.648,0.14,-0.96,0.33,1.02
8.658,0.49,-1.20,0.33,1.34
8.668,0.63,-1.22,0.05,1.37
8.678,0.52,-1.08,0.03,1.20
8.688,0.40,-0.97,0.06,1.05
8.698,0.25,-0.97,0.24,1.04
8.708,0.04,-0.93,0.28,0.98
8.718,-0.24,-0.80,0.24,0.86
8.728,-0.42,-0.83,0.27,0.97
8.739,-0.40,-1.01,0.48,1.19
8.749,-0.25,-1.13,0.52,1.27
8.759,-0.21,-1.07,0.27,1.12
8.769,-0.18,-0.92,0.32,0.99
8.779,0.06,-0.84,0.49,0.98
8.789,0.43,-0.73,0.61,1.04
8.799,0.71,-0.58,0.56,1.07
8.809,0.77,-0.56,0.40,1.03
8.819,0.78,-0.69,0.38,1.11
8.829,0.84,-0.68,0.31,1.12
8.839,0.86,-0.17,0.07,0.88
8.849,0.69,0.17,-0.14,0.73
8.859,0.30,0.11,-0.09,0.33
8.869,0.03,0.16,-0.04,0.17
8.879,-0.11,0.09,-0.01,0.14
8.889,-0.25,0.02,0.10,0.27
8.899,-0.28,-0.12,0.16,0.35
8.909,-0.12,-0.22,0.27,0.37
8.920,0.22,0.18,0.14,0.32
8.929,0.59,0.75,-0.02,0.96
8.940,0.69,0.88,-0.38,1.18
8.950,0.45,0.98,-0.62,1.24
8.960,0.08,1.26,-0.74,1.46
8.970,-0.39,1.87,-0.92,2.12
8.980,-1.11,2.09,-1.15,2.63
8.990,-1.70,1.97,-1.28,2.90
9.000,-2.04,1.75,-1.42,3.04
9.010,-2.07,1.68,-1.50,3.06
9.020,-1.76,1.46,-1.57,2.78
9.030,-1.31,1.31,-1.62,2.46
9.040,-0.95,1.32,-1.59,2.28
9.050,-0.97,1.37,-1.62,2.33
9.060,-1.24,1.17,-1.62,2.35
9.070,-1.59,0.87,-1.64,2.45
9.080,-1.94,0.69,-1.59,2.60
9.090,-2.12,1.17,-1.63,2.92
9.100,-2.24,2.53,-1.92,3.89
9.110,-2.32,4.72,-2.01,5.63
9.121,-2.17,7.25,-2.06,7.85
9.130,-2.43,9.02,-2.57,9.69
9.141,-2.65,8.98,-2.55,9.71
9.151,-2.31,6.87,-1.73,7.45
9.161,-1.78,3.93,-1.08,4.45
9.171,-1.22,1.69,-0.64,2.18
9.181,-0.12,0.39,-0.01,0.41
9.191,1.13,-0.98,1.05,1.83
9.201,1.90,-2.45,1.87,3.62
9.211,2.22,-3.53,2.48,4.86
9.221,2.25,-4.25,2.73,5.53
9.231,2.34,-4.10,2.10,5.17
9.241,2.43,-3.31,1.55,4.39
9.251,2.38,-2.12,1.30,3.44
9.262,2.27,-0.71,1.13,2.63
9.271,2.13,0.63,1.21,2.53
9.282,1.81,1.62,1.47,2.84
9.292,1.34,2.22,1.62,3.06
9.302,0.90,2.25,1.50,2.85
9.312,0.49,1.60,1.22,2.08
9.322,0.13,0.70,1.06,1.28
9.332,-0.19,-0.20,1.05,1.09
9.342,-0.35,-0.84,1.06,1.39
9.352,-0.36,-1.16,0.97,1.55
9.362,-0.19,-1.20,0.69,1.40
9.372,0.10,-1.05,0.43,1.14
9.382,0.37,-0.77,0.29,0.90
9.392,0.54,-0.51,0.27,0.79
9.402,0.63,-0.29,0.24,0.73
9.412,0.64,-0.16,0.17,0.68
9.422,0.56,-0.09,0.10,0.58
9.432,0.43,-0.07,0.14,0.46
9.442,0.32,-0.10,0.27,0.43
9.452,0.19,-0.21,0.41,0.50
9.463,0.09,-0.37,0.60,0.71
9.473,0.05,-0.44,0.73,0.85
9.483,0.05,-0.45,0.87,0.99
9.493,0.10,-0.37,0.94,1.02
9.503,0.11,-0.24,0.97,1.00
9.513,0.12,-0.17,1.00,1.02
9.523,0.14,-0.14,0.88,0.90
9.533,0.22,-0.13,0.64,0.68
9.543,0.30,-0.18,0.42,0.54
9.553,0.39,-0.24,0.26,0.52
9.563,0.46,-0.28,0.19,0.57
9.573,0.51,-0.35,0.22,0.66
9.583,0.50,-0.38,0.39,0.74
9.593,0.51,-0.40,0.49,0.81
9.603,0.51,-0.39,0.48,0.80
9.614,0.50,-0.37,0.39,0.73
9.623,0.53,-0.26,0.34,0.68
9.633,0.52,-0.12,0.23,0.58
9.644,0.47,-0.01,0.10,0.48
9.654,0.42,0.07,0.02,0.42
9.664,0.36,0.09,-0.07,0.38
9.674,0.32,0.09,-0.12,0.36
9.684,0.32,0.06,-0.08,0.34
9.694,0.34,0.01,-0.03,0.35
9.704,0.32,-0.02,-0.01,0.32
9.714,0.26,-0.04,-0.02,0.27
9.724,0.22,-0.05,-0.05,0.23
9.734,0.18,-0.06,-0.05,0.19
9.744,0.17,-0.02,-0.03,0.18
9.754,0.13,0.06,-0.09,0.17
9.764,0.08,0.12,-0.18,0.23
9.774,0.03,0.10,-0.16,0.19
9.785,-0.00,0.07,-0.09,0.11
9.794,0.00,0.01,-0.01,0.02
9.804,-0.01,-0.02,0.02,0.03
9.814,-0.05,-0.03,0.01,0.06
9.825,0.00,-0.04,-0.03,0.05
9.835,0.05,-0.00,-0.09,0.10
9.845,0.04,0.02,-0.06,0.08
9.855,0.00,0.03,-0.00,0.03
9.865,-0.03,0.05,0.02,0.06
9.875,-0.05,0.04,0.01,0.06
9.885,-0.03,0.01,0.01,0.04
9.895,-0.03,-0.00,-0.00,0.03
9.905,-0.02,-0.03,0.08,0.08
9.915,0.01,-0.03,0.20,0.21
9.925,0.04,-0.00,0.21,0.21
9.935,0.06,0.02,0.12,0.13
9.945,0.03,0.01,0.03,0.04
9.955,0.07,-0.03,0.05,0.09
9.965,0.12,-0.06,0.10,0.16
9.975,0.18,-0.10,0.11,0.23
9.985,0.25,-0.12,0.10,0.30
9.995,0.26,-0.13,0.09,0.30
10.006,0.26,-0.09,0.11,0.30
10.015,0.22,-0.08,0.03,0.24
10.026,0.17,-0.06,-0.03,0.19
10.036,0.13,-0.07,-0.04,0.15
10.046,0.09,-0.05,-0.02,0.11
10.056,0.06,-0.02,0.00,0.06
10.066,0.03,-0.01,0.01,0.03
10.076,0.02,0.02,-0.02,0.03
10.086,0.01,0.01,-0.06,0.06
10.096,-0.01,-0.04,-0.05,0.06
10.106,-0.01,-0.04,-0.07,0.08
10.116,0.01,-0.03,-0.07,0.07
10.126,0.03,-0.00,-0.06,0.07
10.136,0.02,0.04,-0.03,0.05
10.146,0.02,0.07,-0.05,0.09
10.156,0.01,0.11,-0.11,0.15
10.166,-0.01,0.10,-0.11,0.15
10.176,-0.02,0.05,-0.09,0.10
10.186,-0.02,0.02,-0.05,0.06
10.197,-0.05,-0.03,0.03,0.07
10.207,-0.05,-0.08,0.11,0.15
10.217,-0.04,-0.10,0.11,0.15
10.227,-0.03,-0.08,0.09,0.13
10.237,-0.02,-0.06,0.06,0.09
10.247,-0.04,-0.05,0.06,0.08
10.257,-0.01,-0.03,0.06,0.07
10.267,0.03,-0.04,0.10,0.11
10.277,0.08,-0.06,0.12,0.16
10.287,0.12,-0.05,0.08,0.15
10.297,0.13,-0.03,0.03,0.14
10.307,0.12,-0.02,0.01,0.13
10.317,0.07,-0.02,-0.01,0.08
10.327,0.05,-0.03,0.01,0.06
10.337,0.05,-0.05,0.03,0.07
10.347,0.05,-0.04,0.02,0.06
10.357,0.08,-0.03,0.00,0.09
10.367,0.11,0.00,0.02,0.11
10.378,0.12,0.02,0.02,0.12
10.388,0.10,-0.01,0.01,0.10
10.398,0.08,0.02,-0.04,0.09
10.408,0.04,0.06,-0.10,0.13
10.418,0.03,0.08,-0.16,0.18
10.428,-0.01,0.07,-0.16,0.18
10.438,-0.03,0.07,-0.13,0.15
10.448,-0.01,0.05,-0.10,0.12
10.458,0.02,0.04,-0.11,0.12
10.468,-0.01,0.01,-0.05,0.06
10.478,-0.02,-0.01,-0.02,0.03
10.488,-0.02,0.00,-0.01,0.02
10.498,-0.02,0.04,-0.04,0.06
10.508,-0.02,0.05,-0.04,0.07
10.518,-0.02,0.04,-0.00,0.05
10.529,-0.03,0.01,0.03,0.04
10.539,-0.03,-0.04,0.09,0.10
10.549,0.00,-0.06,0.10,0.11
10.559,0.00,-0.06,0.07,0.09
10.569,-0.02,-0.03,0.07,0.07
10.579,0.00,-0.03,0.07,0.08
10.589,0.02,0.00,0.06,0.06
10.599,0.03,0.01,0.05,0.06
10.609,0.02,0.00,0.03,0.04
10.619,0.01,-0.02,0.02,0.03
10.629,0.02,-0.06,0.02,0.06
10.639,0.04,-0.06,0.03,0.08
10.649,0.04,-0.05,0.04,0.08
10.659,0.08,-0.01,0.04,0.09
10.669,0.11,-0.00,0.05,0.12
10.679,0.13,-0.00,0.03,0.13
10.689,0.14,0.03,0.00,0.14
10.699,0.15,0.03,-0.01,0.16
10.709,0.12,0.04,-0.03,0.13
10.719,0.12,0.05,-0.05,0.14
10.730,0.09,0.06,-0.10,0.15
10.740,0.06,0.04,-0.10,0.12
10.750,0.07,0.01,-0.08,0.10
10.760,0.07,-0.04,-0.04,0.09
10.770,0.06,-0.06,0.01,0.09
10.780,0.07,-0.06,0.06,0.11
10.790,0.09,-0.07,0.12,0.16
10.800,0.08,-0.05,0.12,0.16
10.810,0.09,-0.02,0.12,0.15
10.820,0.07,0.02,0.09,0.11
10.830,0.04,0.04,0.06,0.09
10.840,0.02,0.04,0.04,0.06
10.850,0.01,0.03,0.01,0.04
10.860,0.01,0.00,0.02,0.03
10.870,0.04,-0.03,0.02,0.06
10.880,0.08,-0.03,0.04,0.09
10.890,0.10,-0.04,0.03,0.11
10.900,0.09,-0.04,0.06,0.12
10.911,0.06,-0.04,0.05,0.09
10.921,0.07,-0.02,0.05,0.09
10.931,0.07,-0.01,0.07,0.10
10.941,0.10,-0.01,0.10,0.14
10.951,0.10,-0.02,0.11,0.16
10.961,0.10,-0.03,0.09,0.14
10.971,0.10,-0.02,0.05,0.12
10.981,0.08,-0.01,-0.03,0.09
10.991,0.05,-0.00,-0.08,0.09
11.001,0.04,-0.03,-0.08,0.09
11.011,0.03,-0.04,-0.07,0.09
11.021,0.03,-0.03,-0.03,0.05
11.031,0.02,-0.00,-0.00,0.02
11.041,-0.01,0.01,0.01,0.02
11.051,-0.02,0.00,0.03,0.04
11.061,-0.02,0.02,0.02,0.04
11.071,0.02,0.05,-0.02,0.06
11.082,0.04,0.09,-0.11,0.15
11.091,0.05,0.08,-0.13,0.16
11.101,0.07,0.06,-0.11,0.14
11.112,0.07,-0.02,-0.06,0.09
11.122,0.08,-0.05,-0.02,0.09
11.132,0.08,-0.07,-0.02,0.11
11.142,0.07,-0.06,-0.06,0.11
11.152,0.05,-0.05,-0.11,0.13
11.162,0.02,-0.01,-0.11,0.11
11.172,0.02,0.02,-0.08,0.09
11.182,-0.00,0.02,-0.06,0.06
11.192,0.01,0.01,-0.03,0.03
11.202,0.01,0.01,-0.01,0.02
11.212,0.03,0.02,0.01,0.04
11.222,0.02,0.04,0.05,0.06
11.233,-0.01,0.08,0.07,0.11
11.243,-0.05,0.07,0.07,0.11
11.252,-0.07,0.01,0.01,0.07
11.263,-0.07,-0.04,-0.08,0.11
11.273,-0.05,-0.09,-0.11,0.15
11.283,0.05,-0.07,-0.10,0.13
11.293,0.11,-0.02,-0.11,0.16
11.303,0.17,0.05,-0.09,0.19
11.313,0.15,0.08,-0.07,0.19
11.323,0.10,0.05,-0.02,0.12
11.333,0.12,0.01,0.06,0.13
11.343,0.11,-0.03,0.12,0.16
11.353,0.10,-0.07,0.14,0.19
11.363,0.10,-0.12,0.16,0.23
11.373,0.11,-0.11,0.17,0.23
11.383,0.12,-0.08,0.10,0.18
11.393,0.11,-0.05,0.06,0.13
11.403,0.10,-0.04,0.03,0.11
11.413,0.07,-0.05,0.04,0.10
11.423,0.05,-0.05,0.07,0.10
11.433,0.05,-0.04,0.10,0.12
11.443,0.06,-0.02,0.07,0.09
11.454,0.04,0.02,0.04,0.06
11.464,0.02,0.03,-0.00,0.03
11.474,-0.02,0.02,-0.05,0.06
11.484,-0.04,0.02,-0.05,0.07
11.494,-0.03,0.00,-0.05,0.06
11.504,-0.01,-0.00,-0.03,0.03
11.514,0.03,0.01,-0.03,0.05
11.524,0.03,0.02,-0.06,0.07
11.534,0.02,0.03,-0.08,0.09
11.544,0.01,0.03,-0.10,0.11
11.554,-0.01,0.00,-0.09,0.10
11.564,-0.01,-0.04,-0.08,0.09
11.574,0.04,-0.06,-0.05,0.08
11.584,0.07,-0.03,-0.05,0.09
11.595,0.10,-0.00,-0.05,0.11
11.604,0.09,0.01,-0.02,0.10
11.615,0.09,0.04,0.00,0.09
11.625,0.06,0.02,0.02,0.06
11.635,0.03,0.01,0.03,0.05
11.645,-0.00,-0.01,0.05,0.05
11.655,0.01,0.01,0.07,0.07
11.665,0.04,0.00,0.08,0.09
11.675,0.06,0.01,0.08,0.10
11.685,0.06,-0.00,0.04,0.07
11.695,0.06,-0.02,-0.01,0.06
11.705,0.05,-0.04,-0.04,0.07
11.715,0.05,-0.04,-0.04,0.08
11.725,0.08,-0.04,0.00,0.09
11.735,0.12,-0.02,0.04,0.12
11.745,0.11,-0.00,0.06,0.12
11.755,0.10,0.00,0.05,0.11
11.765,0.06,0.02,0.00,0.07
11.775,0.05,0.08,-0.04,0.10
11.785,0.05,0.06,-0.07,0.11
11.795,0.03,0.05,-0.03,0.07
11.805,0.05,-0.00,0.06,0.08
11.815,0.07,-0.07,0.12,0.16
11.826,0.11,-0.10,0.12,0.19
11.836,0.14,-0.08,0.08,0.18
11.846,0.12,-0.04,0.00,0.12
11.856,0.10,-0.02,-0.04,0.11
11.866,0.09,-0.01,-0.03,0.09
11.876,0.07,0.01,-0.03,0.08
11.886,0.06,0.02,-0.01,0.06
11.896,0.04,-0.00,0.02,0.04
11.906,0.02,-0.01,0.05,0.06
11.916,0.00,-0.04,0.07,0.08
11.926,0.01,-0.04,0.08,0.09
11.936,-0.00,-0.04,0.07,0.08
11.946,0.01,-0.01,0.05,0.05
11.956,0.03,0.00,0.06,0.07
11.966,0.05,0.02,0.06,0.08
11.976,0.04,0.03,-0.00,0.05
11.986,0.03,0.03,-0.05,0.07
11.997,0.02,0.01,-0.06,0.06
12.006,0.03,0.01,-0.05,0.06
12.017,0.04,-0.01,-0.04,0.06
12.027,0.05,-0.04,-0.01,0.06
12.037,0.07,-0.05,0.03,0.08
12.047,0.07,-0.03,0.01,0.08
12.057,0.06,-0.01,-0.01,0.07
12.067,0.04,-0.01,-0.02,0.05
12.077,0.05,-0.00,-0.05,0.07
12.087,0.04,-0.00,-0.05,0.06
12.097,0.03,-0.02,-0.03,0.05
12.107,0.05,-0.03,0.02,0.06
12.117,0.05,-0.02,0.05,0.07
12.127,0.03,-0.02,0.07,0.08
12.137,0.03,0.01,0.06,0.07
12.147,0.02,0.02,-0.00,0.02
12.157,0.03,0.01,0.00,0.03
12.168,0.03,0.00,-0.00,0.03
12.178,0.02,-0.01,-0.00,0.02
12.188,0.03,-0.01,-0.02,0.03
12.198,0.04,0.00,-0.03,0.05
12.208,0.04,0.01,-0.03,0.06
12.218,0.03,0.01,-0.03,0.04
12.228,0.05,0.01,-0.02,0.05
12.238,0.06,-0.02,-0.02,0.07
12.248,0.07,-0.04,0.04,0.09
12.258,0.09,-0.05,0.02,0.10
12.268,0.08,-0.01,0.03,0.09
12.278,0.06,-0.02,0.04,0.08
12.288,0.05,-0.03,0.05,0.08
12.298,0.04,-0.02,0.06,0.07
12.308,0.04,-0.01,0.05,0.06
12.318,0.03,-0.02,0.06,0.07
12.328,0.03,-0.02,0.04,0.06
12.339,0.06,-0.01,0.06,0.08
12.348,0.08,0.01,0.04,0.10
12.359,0.09,0.01,0.01,0.09
12.369,0.07,0.01,-0.01,0.07
12.379,0.05,-0.02,0.01,0.06
12.389,0.06,-0.03,-0.00,0.06
12.399,0.07,-0.04,0.01,0.08
12.409,0.07,-0.05,-0.01,0.08
12.419,0.06,-0.02,-0.01,0.06
12.429,0.06,0.01,-0.02,0.06
12.439,0.04,0.04,-0.03,0.06
12.449,0.02,0.02,-0.06,0.07
12.459,-0.00,-0.00,-0.03,0.03
12.469,-0.01,-0.00,-0.03,0.03
12.479,0.01,-0.00,-0.02,0.03
12.489,0.03,0.00,-0.02,0.04
12.499,0.05,0.02,-0.01,0.06
12.509,0.03,0.03,-0.04,0.06
12.519,0.01,0.02,-0.03,0.04
12.529,0.01,0.01,0.01,0.02
12.540,0.03,-0.01,0.06,0.07
12.550,0.04,-0.01,0.08,0.09
12.560,0.08,-0.00,0.06,0.10
12.570,0.05,-0.01,-0.01,0.05
12.580,0.03,-0.02,-0.04,0.05
12.590,0.01,-0.03,-0.06,0.07
12.600,0.02,-0.01,-0.04,0.05
12.610,0.04,-0.02,0.01,0.05
12.620,0.03,-0.03,0.05,0.07
12.630,0.03,-0.02,0.06,0.07
12.640,0.01,0.02,0.05,0.05
12.650,0.00,0.04,0.02,0.05
12.660,0.05,0.04,0.00,0.06
12.670,0.06,0.03,-0.04,0.08
12.680,0.08,0.06,-0.02,0.10
12.690,0.06,-0.01,0.03,0.06
12.700,0.05,-0.08,0.07,0.12
12.710,0.08,-0.10,0.08,0.15
12.721,0.09,-0.07,0.07,0.14
12.731,0.09,-0.02,0.04,0.10
12.741,0.07,0.01,0.00,0.07
12.751,0.07,0.02,0.01,0.07
12.761,0.04,0.01,0.02,0.05
12.771,0.02,-0.01,0.02,0.03
12.781,0.00,-0.04,0.05,0.06
12.791,0.00,-0.05,0.08,0.09
12.801,0.01,-0.06,0.09,0.11
12.811,0.02,-0.04,0.08,0.09
12.821,0.04,-0.02,0.07,0.08
12.831,0.05,-0.00,0.03,0.05
12.841,0.08,0.02,0.00,0.08
12.851,0.07,0.03,-0.02,0.08
12.861,0.06,0.02,-0.03,0.06
12.871,0.05,0.02,-0.06,0.09
12.882,0.03,0.01,-0.07,0.08
12.891,0.00,-0.01,-0.07,0.07
12.902,0.00,-0.01,-0.02,0.02
12.912,0.02,0.01,0.03,0.03
12.922,0.04,0.00,0.04,0.06
12.932,0.05,-0.01,0.04,0.07
12.942,0.06,-0.02,0.04,0.07
12.952,0.04,-0.02,0.01,0.05
12.962,0.03,-0.01,-0.01,0.04
12.972,0.03,-0.02,0.02,0.04
12.982,0.04,-0.03,0.03,0.06
12.992,0.07,-0.01,0.04,0.08
13.002,0.06,0.02,0.02,0.07
13.012,0.06,0.04,-0.03,0.08
13.022,0.04,0.00,-0.01,0.04
13.032,0.01,-0.03,-0.02,0.03
13.042,-0.01,-0.04,-0.02,0.05
13.053,-0.02,-0.04,-0.00,0.05
13.063,0.01,-0.03,0.02,0.04
13.072,0.02,-0.01,0.03,0.04
13.083,0.04,0.01,-0.02,0.05
13.093,0.01,0.02,-0.06,0.06
13.103,-0.00,0.02,-0.08,0.09
13.113,-0.02,0.01,-0.09,0.09
13.123,-0.01,0.00,-0.08,0.08
13.133,0.01,-0.01,-0.05,0.05
13.143,0.03,-0.00,-0.00,0.03
13.153,0.07,0.04,0.01,0.08
13.163,0.06,0.04,-0.02,0.08
13.173,0.05,0.02,-0.03,0.06
13.183,0.03,0.01,-0.03,0.04
13.193,0.01,0.00,-0.05,0.05
13.203,-0.01,-0.02,-0.02,0.03
13.213,-0.01,-0.03,0.02,0.04
13.223,0.01,-0.01,0.02,0.02
13.234,0.04,-0.01,0.05,0.06
13.244,0.07,-0.02,0.07,0.10
13.254,0.08,-0.03,0.05,0.10
13.264,0.10,-0.04,0.02,0.11
13.274,0.09,-0.04,-0.00,0.10
13.284,0.06,-0.03,0.00,0.07
13.294,0.06,-0.02,0.02,0.07
13.304,0.04,-0.01,0.01,0.05
13.314,0.02,0.01,0.02,0.03
13.324,0.01,0.01,0.01,0.02
13.334,0.03,-0.01,0.08,0.08
13.344,0.04,-0.01,0.10,0.11
13.354,0.06,0.01,0.07,0.09
13.364,0.08,0.01,0.03,0.09
13.374,0.05,-0.00,-0.01,0.06
13.384,0.02,-0.02,-0.05,0.06
13.394,-0.02,-0.03,-0.07,0.08
13.404,-0.02,-0.05,-0.01,0.05
13.415,0.03,-0.03,0.04,0.06
13.425,0.08,0.03,0.05,0.09
13.435,0.07,0.03,0.05,0.09
13.445,0.05,0.02,0.02,0.06
13.455,0.01,0.03,-0.06,0.06
13.465,0.01,0.04,-0.10,0.10
13.475,0.04,0.03,-0.07,0.08
13.485,0.06,-0.01,-0.03,0.07
13.495,0.09,0.01,0.01,0.09
13.505,0.10,-0.01,0.04,0.10
13.515,0.06,-0.07,0.04,0.10
13.525,0.04,-0.09,0.04,0.10
13.535,0.05,-0.07,0.02,0.09
13.545,0.04,-0.02,-0.01,0.05
13.555,0.02,0.01,-0.00,0.02
13.565,0.02,0.04,0.01,0.05
13.575,-0.00,0.03,0.01,0.03
13.586,-0.01,0.01,0.02,0.02
13.595,-0.01,-0.01,0.05,0.05
13.606,-0.02,-0.02,0.02,0.04
13.615,-0.03,-0.01,-0.00,0.03
13.626,-0.04,-0.01,0.03,0.05
13.636,-0.01,-0.00,0.04,0.04
13.646,0.00,-0.00,0.03,0.03
13.656,0.03,0.00,-0.01,0.03
13.666,0.04,0.02,-0.03,0.06
13.676,0.03,0.04,-0.05,0.07
13.686,0.04,0.04,-0.04,0.07
13.696,0.06,0.02,-0.03,0.07
13.706,0.05,0.01,-0.05,0.07
13.716,0.06,-0.00,-0.04,0.07
13.726,0.06,-0.02,0.00,0.06
13.736,0.07,-0.05,0.04,0.09
13.746,0.06,-0.06,0.04,0.09
13.756,0.05,-0.03,0.02,0.07
13.766,0.04,-0.02,0.06,0.08
13.776,0.05,-0.02,0.10,0.11
13.786,0.07,-0.02,0.07,0.10
13.797,0.07,-0.01,0.05,0.08
13.807,0.06,0.01,0.01,0.06
13.817,0.05,0.02,-0.04,0.06
13.827,0.03,0.01,-0.02,0.04
13.837,0.03,-0.01,0.02,0.04
13.847,0.07,-0.02,0.09,0.11
13.857,0.10,-0.01,0.08,0.13
13.867,0.09,-0.00,0.02,0.10
13.877,0.06,-0.00,0.00,0.06
13.887,-0.01,-0.01,-0.05,0.05
13.897,-0.02,-0.02,-0.02,0.04
13.907,0.01,-0.01,-0.00,0.01
13.917,0.02,-0.01,0.01,0.03
13.927,0.03,-0.02,0.06,0.07
13.937,0.06,-0.02,0.07,0.09
13.947,0.06,-0.01,0.04,0.07
13.957,0.05,-0.02,0.01,0.05
13.968,0.03,-0.02,0.03,0.04
13.978,0.03,-0.01,0.02,0.03
13.988,0.05,-0.00,0.02,0.05
13.998,0.07,0.01,-0.02,0.07
14.008,0.06,0.02,-0.05,0.08
14.018,0.01,0.02,-0.06,0.06
14.028,-0.02,-0.00,-0.01,0.02
14.038,-0.01,-0.02,0.04,0.05
14.048,0.03,-0.03,0.06,0.07
14.058,0.08,0.00,0.01,0.08
14.068,0.09,0.04,-0.03,0.10
14.078,0.07,0.05,-0.09,0.13
14.088,0.02,0.02,-0.12,0.12
14.098,-0.04,0.00,-0.10,0.11
14.108,-0.06,-0.01,-0.03,0.07
14.118,-0.01,-0.03,0.05,0.05
14.128,0.02,-0.03,0.09,0.10
14.139,0.05,-0.01,0.07,0.09
14.148,0.08,0.02,0.02,0.09
14.159,0.06,0.03,-0.04,0.08
14.169,0.03,0.01,-0.02,0.03
14.179,0.00,-0.01,0.01,0.02
14.189,0.00,-0.02,0.03,0.04
14.199,0.02,-0.03,0.08,0.09
14.209,0.06,-0.02,0.07,0.10
14.219,0.06,-0.00,0.01,0.06
14.229,0.05,0.02,-0.03,0.06
14.239,0.02,0.01,-0.05,0.06
14.249,-0.01,-0.01,-0.02,0.02
14.259,-0.02,-0.03,0.03,0.05
14.269,0.01,-0.03,0.04,0.05
14.279,0.04,0.01,0.01,0.05
14.289,0.09,0.02,-0.01,0.09
14.299,0.10,0.03,-0.02,0.11
14.309,0.11,0.03,-0.04,0.12
14.319,0.09,0.00,-0.01,0.09
14.329,0.05,-0.05,0.01,0.07
14.340,0.02,-0.06,0.03,0.07
14.350,-0.01,-0.04,0.03,0.06
14.360,-0.02,-0.02,0.05,0.06
14.370,-0.01,-0.01,0.04,0.04
14.380,0.00,0.01,0.05,0.05
14.390,0.04,-0.01,0.06,0.07
14.400,0.03,0.00,0.06,0.07
14.410,0.03,0.01,0.01,0.04
14.420,0.04,0.00,-0.01,0.04
14.430,0.05,-0.01,-0.00,0.05
14.440,0.04,-0.00,-0.01,0.04
14.450,0.03,-0.00,-0.00,0.03
14.460,0.06,-0.00,0.01,0.06
14.470,0.06,0.01,0.01,0.06
14.480,0.06,0.01,-0.01,0.06
14.490,0.07,0.01,-0.01,0.07
14.500,0.06,0.01,-0.05,0.08
14.510,0.03,-0.00,-0.08,0.08
14.520,0.02,-0.03,-0.06,0.07
14.531,0.01,-0.03,-0.01,0.03
14.541,0.03,-0.04,0.04,0.07
14.551,0.05,-0.02,0.03,0.06
14.561,0.07,0.01,0.01,0.08
14.571,0.06,0.02,0.02,0.07
14.581,0.07,-0.01,0.03,0.07
14.591,0.04,-0.02,0.02,0.05
14.601,0.02,-0.01,0.02,0.03
14.611,0.04,-0.01,0.00,0.04
14.621,0.03,-0.01,-0.01,0.04
14.631,0.04,0.00,-0.01,0.04
14.641,0.02,0.01,-0.01,0.03
14.651,0.03,0.01,-0.02,0.03
14.661,0.00,0.01,-0.04,0.04
14.671,0.01,0.01,-0.05,0.05
14.681,0.01,0.00,-0.02,0.02
14.691,0.02,-0.02,-0.02,0.03
14.702,0.03,-0.00,-0.00,0.03
14.712,0.02,0.01,0.00,0.03
14.722,0.03,0.02,0.03,0.05
14.732,0.04,0.03,-0.00,0.05
14.742,0.02,0.02,-0.02,0.03
14.752,-0.01,0.00,-0.01,0.02
14.762,-0.02,-0.01,0.00,0.02
14.772,0.00,-0.03,0.03,0.05
14.782,0.02,-0.03,0.07,0.08
14.792,0.05,-0.01,0.11,0.12
14.802,0.07,-0.00,0.09,0.11
14.812,0.06,-0.02,0.02,0.07
14.822,0.05,-0.02,-0.00,0.06
14.832,0.05,-0.01,0.01,0.05
14.842,0.05,-0.02,0.05,0.08
14.852,0.05,-0.03,0.04,0.07
14.862,0.06,-0.01,0.03,0.06
14.872,0.05,-0.00,0.00,0.05
14.882,-0.00,-0.02,-0.02,0.02
14.893,-0.01,-0.04,-0.02,0.05
14.903,-0.03,-0.05,-0.01,0.06
14.913,0.01,-0.01,0.01,0.02
14.923,0.04,0.01,0.05,0.06
14.933,0.06,0.01,0.07,0.09
14.943,0.06,0.03,0.07,0.10
14.953,0.05,0.01,0.04,0.06
14.963,0.03,0.01,0.01,0.03
14.973,0.04,-0.02,0.01,0.05
14.983,0.03,-0.03,0.02,0.05
14.993,0.04,-0.01,0.04,0.06
15.003,0.05,-0.01,0.03,0.06
15.013,0.04,-0.01,-0.02,0.04
15.023,0.00,-0.02,-0.06,0.06
15.033,-0.02,-0.01,-0.06,0.06
15.044,-0.02,-0.01,-0.02,0.03
15.054,-0.02,0.02,-0.01,0.02
15.064,0.02,0.02,0.02,0.04
15.074,0.03,0.04,0.05,0.07
15.084,0.02,0.02,0.02,0.04
15.094,0.00,0.02,-0.01,0.02
15.104,0.03,0.02,-0.06,0.07
15.114,0.04,0.01,-0.08,0.09
15.124,0.03,0.01,-0.03,0.05
15.134,0.03,-0.01,0.04,0.05
15.144,0.02,-0.06,0.09,0.11
15.154,0.01,-0.07,0.07,0.10
15.164,0.01,-0.04,0.03,0.05
15.174,0.02,0.01,-0.01,0.02
15.184,0.02,0.03,-0.01,0.04
15.194,0.03,0.03,0.02,0.05
15.204,0.09,0.02,0.05,0.10
15.214,0.10,-0.01,0.05,0.11
15.224,0.07,-0.01,0.02,0.08
15.235,0.03,-0.03,0.01,0.04
15.244,-0.01,-0.04,0.02,0.05
15.255,-0.04,-0.03,0.05,0.07
15.265,-0.03,-0.03,0.06,0.08
15.275,0.01,0.01,0.06,0.06
15.285,0.05,0.04,0.01,0.07
15.295,0.04,0.03,-0.03,0.06
15.305,0.02,0.02,-0.05,0.06
15.315,-0.00,0.02,-0.07,0.07
15.325,-0.00,0.01,-0.04,0.04
15.335,0.02,-0.00,-0.00,0.02
15.345,0.05,-0.02,0.03,0.06
15.355,0.06,-0.00,-0.00,0.06
15.365,0.04,-0.00,-0.04,0.06
15.375,0.01,0.01,-0.09,0.09
15.385,-0.03,0.01,-0.08,0.09
15.395,-0.04,0.00,-0.04,0.06
15.405,-0.03,-0.00,-0.00,0.03
15.415,0.01,0.01,0.06,0.06
15.426,0.04,0.01,0.09,0.10
15.436,0.07,0.01,0.06,0.09
15.446,0.09,0.02,-0.00,0.09
15.456,0.06,-0.00,-0.02,0.06
15.466,0.02,-0.02,-0.02,0.04
15.476,0.02,-0.02,-0.02,0.03
15.486,-0.00,-0.01,-0.02,0.03
15.496,-0.02,0.02,-0.00,0.02
15.506,-0.02,0.00,0.03,0.04
15.516,-0.01,0.00,0.01,0.02
15.526,-0.00,0.01,0.00,0.01
15.536,0.01,0.02,-0.03,0.04
15.546,0.02,0.01,-0.00,0.02
15.556,0.02,-0.01,0.02,0.03
15.566,0.01,-0.02,0.03,0.04
15.576,0.00,-0.02,0.00,0.02
15.586,0.01,-0.00,-0.02,0.02
15.597,0.01,-0.00,-0.00,0.01
15.607,0.03,0.00,0.01,0.03
15.617,0.04,-0.02,0.02,0.05
15.627,0.04,-0.02,0.03,0.05
15.637,0.04,-0.01,0.01,0.04
15.647,0.05,-0.02,-0.02,0.05
15.657,0.03,-0.03,-0.02,0.04
15.667,0.03,-0.04,0.01,0.05
15.677,0.06,-0.02,0.02,0.07
15.687,0.08,0.00,0.01,0.08
15.697,0.06,0.02,0.03,0.06
15.707,0.04,0.02,0.05,0.07
15.717,0.02,-0.00,0.06,0.07
15.727,0.02,-0.00,0.05,0.06
15.737,0.05,0.01,0.04,0.06
15.747,0.05,-0.02,0.05,0.07
15.757,0.07,-0.02,0.05,0.09
15.768,0.06,0.00,0.00,0.06
15.778,0.04,-0.00,-0.03,0.05
15.788,-0.00,-0.02,0.01,0.02
15.798,-0.02,-0.03,-0.01,0.03
15.808,-0.01,0.00,0.00,0.01
15.818,0.01,0.03,-0.01,0.03
15.828,-0.01,0.04,0.01,0.04
15.838,0.00,0.04,-0.01,0.04
15.848,0.01,0.03,-0.01,0.03
15.858,0.02,0.04,0.00,0.04
15.868,0.04,0.02,0.00,0.04
15.878,0.08,0.02,-0.02,0.08
15.888,0.07,0.01,-0.02,0.07
15.898,0.07,-0.05,0.04,0.10
15.908,0.06,-0.08,0.08,0.13
15.918,0.05,-0.09,0.06,0.12
15.929,0.04,-0.03,0.02,0.06
15.938,0.04,0.01,-0.03,0.05
15.948,0.01,0.04,-0.06,0.08
15.959,-0.02,0.04,-0.09,0.10
15.968,-0.05,0.04,-0.05,0.08
15.979,-0.07,0.02,0.02,0.07
15.989,-0.04,0.02,0.05,0.07
15.999,-0.01,0.02,0.02,0.03
16.009,-0.02,0.04,-0.05,0.07
16.019,-0.04,0.07,-0.11,0.13
16.029,-0.05,0.08,-0.10,0.13
16.039,-0.08,0.06,-0.06,0.12
16.049,-0.10,0.04,-0.06,0.12
16.059,-0.08,0.04,-0.07,0.12
16.069,-0.06,0.06,-0.09,0.13
16.079,-0.05,0.05,-0.12,0.14
16.089,-0.03,0.06,-0.15,0.17
16.099,-0.01,0.03,-0.12,0.12
16.109,-0.01,0.03,-0.07,0.08
16.119,0.01,0.04,-0.03,0.05
16.129,0.00,0.02,-0.00,0.02
16.140,0.01,0.03,-0.03,0.04
16.150,-0.00,0.05,-0.06,0.08
16.160,-0.02,0.05,-0.07,0.09
16.170,-0.01,0.03,-0.07,0.08
16.180,-0.00,0.01,-0.04,0.05
16.190,0.01,-0.02,0.02,0.03
16.200,0.03,-0.03,0.12,0.12
16.210,0.11,-0.07,0.16,0.21
16.220,0.19,-0.07,0.13,0.24
16.230,0.21,-0.07,0.05,0.22
16.240,0.20,-0.05,-0.02,0.21
16.250,0.16,-0.03,-0.06,0.18
16.260,0.11,-0.01,-0.06,0.12
16.270,0.03,0.01,-0.03,0.05
16.280,-0.01,0.04,-0.02,0.04
16.290,-0.02,0.05,0.01,0.06
16.301,-0.01,0.04,0.06,0.07
16.311,0.05,0.00,0.07,0.09
16.321,0.11,-0.04,0.06,0.13
16.331,0.12,-0.06,-0.02,0.14
16.341,0.13,-0.08,-0.05,0.16
16.351,0.14,-0.08,0.01,0.16
16.361,0.11,-0.05,0.03,0.12
16.371,0.07,0.01,0.01,0.07
16.381,0.05,0.07,-0.04,0.09
16.391,0.03,0.10,-0.09,0.14
16.401,0.01,0.12,-0.15,0.19
16.411,0.01,0.09,-0.14,0.16
16.421,-0.00,0.05,-0.12,0.13
16.431,-0.00,0.02,-0.08,0.08
16.441,-0.02,-0.02,-0.05,0.05
16.451,-0.02,-0.02,-0.04,0.05
16.461,-0.01,-0.02,-0.06,0.07
16.471,-0.01,-0.04,-0.07,0.08
16.481,-0.02,-0.05,-0.05,0.07
16.492,-0.04,-0.07,0.00,0.07
16.502,-0.02,-0.04,0.08,0.09
16.512,-0.00,-0.01,0.15,0.15
16.522,0.02,0.01,0.21,0.21
16.532,0.01,0.06,0.20,0.21
16.542,-0.00,0.08,0.18,0.20
16.552,0.03,0.06,0.20,0.21
16.562,0.06,0.01,0.18,0.19
16.572,0.09,-0.06,0.14,0.18
16.582,0.15,-0.13,0.06,0.21
16.592,0.17,-0.18,0.03,0.25
16.602,0.20,-0.16,-0.06,0.27
16.612,0.17,-0.13,-0.08,0.23
16.622,0.15,-0.08,-0.04,0.17
16.632,0.16,-0.02,-0.01,0.16
16.642,0.16,0.02,0.02,0.16
16.652,0.13,0.04,0.04,0.14
16.663,0.06,0.04,0.07,0.10
16.673,-0.02,0.05,0.07,0.08
16.683,-0.13,0.01,-0.03,0.13
16.693,-0.20,-0.00,-0.05,0.20
16.703,-0.22,-0.02,0.02,0.22
16.713,-0.23,-0.02,0.07,0.25
16.723,-0.22,-0.01,0.16,0.27
16.733,-0.10,-0.03,0.22,0.24
16.743,-0.06,-0.02,0.17,0.19
16.753,-0.07,0.02,0.06,0.10
16.763,-0.02,0.03,0.01,0.04
16.773,0.05,0.07,-0.03,0.09
16.783,0.06,0.11,-0.08,0.15
16.793,0.08,0.06,-0.10,0.14
16.803,0.06,-0.01,-0.07,0.10
16.813,0.10,-0.04,-0.07,0.13
16.823,0.14,-0.07,0.02,0.16
16.833,0.13,-0.07,0.12,0.19
16.843,0.10,-0.10,0.14,0.20
16.853,0.08,-0.14,0.12,0.20
16.864,0.11,-0.17,0.07,0.21
16.874,0.15,-0.15,0.16,0.26
16.884,0.16,-0.10,0.13,0.23
16.894,0.12,-0.10,0.02,0.16
16.904,0.15,-0.06,-0.03,0.16
16.914,0.13,0.03,0.04,0.14
16.924,0.12,0.08,0.05,0.16
16.934,0.07,0.05,0.04,0.09
16.944,0.01,0.02,0.03,0.04
16.954,0.01,-0.01,0.05,0.06
16.964,0.05,-0.03,0.08,0.10
16.974,0.06,-0.03,0.10,0.12
16.984,0.05,-0.01,0.08,0.10
16.994,0.03,0.02,-0.01,0.04
17.004,0.03,0.02,-0.06,0.06
17.014,0.00,-0.00,-0.07,0.07
17.025,-0.01,0.00,-0.10,0.10
17.035,-0.01,0.01,-0.07,0.08
17.045,-0.01,0.03,-0.03,0.05
17.055,0.02,0.04,-0.01,0.04
17.065,0.06,0.03,0.05,0.08
17.075,0.12,0.02,0.07,0.14
17.085,0.14,0.01,0.07,0.15
17.095,0.13,0.02,0.06,0.15
17.105,0.12,0.01,0.03,0.12
17.115,0.11,-0.00,0.00,0.11
17.125,0.09,-0.06,-0.00,0.10
17.135,0.10,-0.09,0.05,0.14
17.145,0.10,-0.08,0.05,0.14
17.155,0.09,-0.05,0.08,0.13
17.165,0.02,-0.04,0.12,0.13
17.175,0.00,-0.02,0.16,0.16
17.185,0.02,-0.02,0.14,0.14
17.195,0.04,-0.03,0.13,0.13
17.206,0.05,-0.04,0.10,0.12
17.215,0.08,-0.04,0.05,0.10
17.226,0.06,-0.04,0.00,0.07
17.236,0.04,-0.00,-0.01,0.05
17.246,0.01,0.02,-0.07,0.07
17.256,-0.03,0.03,-0.10,0.11
17.266,0.01,0.10,-0.08,0.13
17.276,0.08,0.20,-0.01,0.21
17.286,0.07,0.16,-0.02,0.17
17.296,0.04,0.05,-0.07,0.09
17.306,-0.01,-0.11,-0.05,0.12
17.316,0.04,-0.10,-0.05,0.12
17.326,0.05,-0.04,-0.08,0.10
17.336,-0.04,-0.10,-0.07,0.13
17.346,-0.00,-0.05,-0.07,0.09
17.356,0.06,0.08,-0.03,0.10
17.366,0.08,0.11,0.02,0.14
17.376,0.07,0.10,-0.03,0.12
17.387,-0.01,0.03,-0.11,0.12
17.396,-0.04,0.01,-0.11,0.12
17.407,-0.07,0.03,-0.08,0.11
17.417,-0.07,0.01,-0.07,0.10
17.427,-0.01,-0.01,-0.01,0.01
17.437,0.08,-0.02,0.07,0.11
17.447,0.17,-0.01,0.09,0.20
17.457,0.19,0.01,0.07,0.20
17.467,0.12,-0.06,0.09,0.16
17.477,0.03,-0.12,0.08,0.15
17.487,-0.02,-0.19,0.12,0.22
17.497,-0.01,-0.15,0.03,0.16
17.507,0.02,0.08,0.03,0.09
17.517,-0.08,0.08,0.04,0.12
17.527,-0.03,0.05,-0.03,0.07
17.537,0.03,0.14,-0.07,0.16
17.547,0.06,0.14,-0.04,0.15
17.557,0.11,0.01,0.00,0.11
17.567,0.14,-0.01,0.01,0.15
17.578,0.11,-0.15,0.08,0.20
17.588,0.09,-0.09,0.01,0.13
