time,ax,ay,az,atotal
0.000,-0.02,-0.18,0.10,0.21
0.010,0.04,-0.11,0.09,0.15
0.020,0.04,-0.12,0.12,0.18
0.030,0.08,-0.16,0.17,0.24
0.040,0.10,-0.15,0.19,0.26
0.050,0.19,-0.13,0.22,0.32
0.060,0.23,-0.05,0.20,0.30
0.070,0.15,-0.08,0.20,0.26
0.080,0.10,-0.03,0.20,0.22
0.091,0.07,0.03,0.18,0.19
0.101,0.03,0.01,0.17,0.17
0.111,-0.00,-0.06,0.20,0.21
0.121,0.01,-0.10,0.21,0.24
0.131,-0.00,-0.07,0.16,0.18
0.141,-0.02,-0.10,0.12,0.16
0.151,-0.02,-0.14,0.13,0.19
0.161,0.03,-0.12,0.19,0.22
0.171,0.03,-0.08,0.20,0.22
0.181,0.02,-0.05,0.14,0.15
0.191,-0.03,-0.02,0.07,0.07
0.201,-0.12,-0.02,-0.01,0.12
0.211,-0.12,-0.06,-0.00,0.14
0.221,-0.06,-0.08,0.04,0.12
0.231,0.01,-0.03,0.03,0.05
0.241,0.05,-0.02,-0.06,0.08
0.251,0.02,-0.05,-0.08,0.10
0.261,-0.04,-0.09,-0.05,0.11
0.271,-0.08,-0.06,-0.03,0.10
0.282,-0.13,-0.03,0.00,0.13
0.292,-0.14,-0.04,0.06,0.16
0.302,-0.09,-0.09,0.11,0.17
0.312,-0.02,-0.10,0.15,0.18
0.322,0.03,-0.07,0.16,0.18
0.332,0.06,-0.06,0.10,0.13
0.342,0.11,-0.04,0.06,0.13
0.352,0.14,-0.01,0.13,0.19
0.362,0.17,0.00,0.18,0.24
0.372,0.18,-0.02,0.22,0.28
0.382,0.22,-0.10,0.24,0.34
0.392,0.25,-0.18,0.29,0.42
0.402,0.28,-0.22,0.33,0.48
0.412,0.32,-0.26,0.36,0.54
0.422,0.32,-0.25,0.39,0.56
0.432,0.28,-0.14,0.41,0.51
0.442,0.20,-0.06,0.38,0.43
0.453,0.14,-0.05,0.35,0.38
0.462,0.12,-0.08,0.32,0.35
0.473,0.07,-0.15,0.32,0.36
0.483,0.05,-0.22,0.33,0.40
0.493,0.00,-0.19,0.31,0.36
0.503,-0.05,-0.08,0.30,0.31
0.513,-0.08,-0.09,0.28,0.31
0.523,-0.14,-0.12,0.23,0.30
0.533,-0.18,-0.15,0.17,0.29
0.543,-0.17,-0.10,0.00,0.19
0.553,-0.16,0.01,-0.13,0.21
0.563,-0.22,0.09,-0.11,0.27
0.573,-0.30,0.08,-0.05,0.31
0.584,-0.36,-0.07,0.08,0.37
0.593,-0.29,-0.17,0.19,0.39
0.603,-0.12,-0.14,0.17,0.25
0.613,0.09,-0.08,0.08,0.15
0.624,0.24,-0.04,-0.03,0.25
0.634,0.30,0.01,-0.11,0.32
0.644,0.23,0.03,-0.14,0.28
0.654,0.14,-0.01,-0.07,0.15
0.664,0.06,-0.07,0.00,0.09
0.674,0.04,-0.11,0.03,0.12
0.684,0.06,-0.05,0.01,0.08
0.694,0.03,-0.01,0.02,0.04
0.704,-0.02,-0.06,-0.02,0.06
0.714,-0.07,-0.07,-0.03,0.10
0.724,-0.06,0.02,-0.06,0.08
0.734,0.00,0.13,-0.03,0.13
0.744,0.14,0.18,-0.04,0.23
0.754,0.21,0.17,-0.11,0.29
0.764,0.19,0.10,-0.16,0.27
0.774,0.12,-0.08,-0.19,0.24
0.784,-0.01,-0.22,-0.25,0.33
0.795,-0.12,-0.27,-0.21,0.37
0.805,-0.14,-0.25,-0.14,0.32
0.815,-0.19,-0.15,-0.13,0.27
0.825,-0.26,-0.04,-0.19,0.32
0.835,-0.34,-0.03,-0.24,0.41
0.845,-0.42,0.03,-0.26,0.50
0.855,-0.52,0.16,-0.28,0.61
0.865,-0.64,0.28,-0.30,0.76
0.875,-0.73,0.27,-0.24,0.81
0.885,-0.69,0.07,-0.09,0.70
0.895,-0.49,-0.15,0.01,0.52
0.905,-0.21,-0.32,0.02,0.38
0.915,0.07,-0.35,0.06,0.36
0.925,0.32,-0.28,0.17,0.46
0.935,0.65,-0.15,0.30,0.73
0.945,0.90,-0.02,0.38,0.98
0.955,1.02,-0.08,0.41,1.10
0.965,1.01,-0.28,0.40,1.12
0.975,0.99,-0.47,0.38,1.16
0.986,0.98,-0.54,0.35,1.17
0.996,0.95,-0.43,0.36,1.11
1.006,0.94,-0.18,0.44,1.05
1.016,0.91,0.10,0.55,1.07
1.026,0.82,0.31,0.55,1.04
1.036,0.71,0.39,0.48,0.94
1.046,0.58,0.28,0.42,0.77
1.056,0.43,0.16,0.33,0.57
1.066,0.36,0.05,0.29,0.46
1.076,0.37,-0.07,0.29,0.47
1.086,0.36,-0.06,0.36,0.51
1.096,0.33,-0.03,0.61,0.69
1.106,0.36,-0.01,0.86,0.93
1.116,0.49,0.10,0.82,0.96
1.126,0.59,0.16,0.71,0.94
1.136,0.60,0.13,0.60,0.86
1.146,0.55,-0.02,0.50,0.74
1.157,0.45,-0.22,0.40,0.64
1.167,0.37,-0.36,0.34,0.62
1.177,0.42,-0.38,0.27,0.63
1.187,0.50,-0.35,0.21,0.64
1.197,0.56,-0.34,0.21,0.68
1.207,0.67,-0.36,0.35,0.84
1.217,0.87,-0.28,0.48,1.04
1.227,1.02,-0.07,0.48,1.13
1.237,1.05,0.09,0.34,1.11
1.247,0.94,-0.01,0.17,0.96
1.257,0.75,-0.35,0.05,0.83
1.267,0.57,-0.64,0.08,0.86
1.277,0.49,-0.78,0.16,0.93
1.287,0.47,-0.68,0.22,0.86
1.297,0.43,-0.46,0.23,0.67
1.307,0.42,-0.23,0.20,0.52
1.318,0.42,-0.05,0.17,0.45
1.327,0.40,0.02,0.18,0.44
1.337,0.41,0.02,0.22,0.47
1.347,0.39,-0.01,0.26,0.47
1.358,0.31,-0.08,0.19,0.37
1.368,0.18,-0.24,0.11,0.32
1.378,0.09,-0.42,0.13,0.45
1.388,0.09,-0.45,0.21,0.51
1.398,0.20,-0.29,0.27,0.44
1.408,0.28,-0.06,0.27,0.39
1.418,0.28,0.04,0.20,0.35
1.428,0.33,-0.05,0.22,0.40
1.438,0.43,-0.06,0.39,0.59
1.448,0.67,0.04,0.54,0.86
1.458,0.85,0.19,0.57,1.04
1.468,0.88,0.30,0.39,1.01
1.478,0.74,0.29,0.20,0.82
1.488,0.60,0.24,0.21,0.68
1.498,0.58,0.35,0.35,0.77
1.508,0.73,0.69,0.43,1.09
1.519,0.84,1.11,0.41,1.45
1.529,0.81,1.40,0.38,1.66
1.539,0.71,1.50,0.25,1.68
1.549,0.61,1.24,0.15,1.39
1.559,0.43,0.70,0.16,0.84
1.569,0.45,0.38,0.35,0.68
1.579,0.57,0.35,0.55,0.87
1.589,0.57,0.37,0.67,0.95
1.599,0.53,0.29,0.64,0.88
1.609,0.45,0.07,0.58,0.74
1.619,0.35,-0.21,0.66,0.78
1.629,0.42,-0.58,0.71,1.00
1.639,0.52,-0.85,0.57,1.15
1.649,0.68,-1.17,0.41,1.42
1.659,0.88,-1.48,0.40,1.77
1.670,1.09,-1.64,0.56,2.05
1.680,1.26,-1.67,0.85,2.26
1.690,1.35,-1.47,1.11,2.28
1.700,1.43,-1.15,1.22,2.20
1.710,1.43,-0.74,1.07,1.93
1.720,1.27,-0.23,0.79,1.51
1.730,1.01,0.27,0.67,1.24
1.740,0.63,0.56,0.52,0.99
1.750,0.23,0.63,0.38,0.76
1.760,0.02,0.62,0.47,0.78
1.770,0.08,0.61,0.69,0.92
1.780,0.39,0.68,0.76,1.10
1.790,0.74,0.70,0.70,1.24
1.800,1.10,0.65,0.50,1.37
1.810,1.41,0.53,0.34,1.55
1.820,1.52,0.28,0.20,1.56
1.830,1.52,0.10,-0.04,1.53
1.840,1.44,-0.01,-0.28,1.47
1.851,1.09,-0.20,-0.31,1.15
1.860,0.65,-0.41,-0.33,0.83
1.871,0.25,-0.60,-0.41,0.76
1.881,-0.05,-0.76,-0.44,0.87
1.891,-0.23,-0.85,-0.43,0.98
1.901,-0.39,-0.75,-0.58,1.03
1.911,-0.53,-0.53,-0.91,1.19
1.921,-0.73,-0.39,-1.14,1.41
1.931,-1.03,-0.25,-1.27,1.66
1.941,-1.39,-0.09,-1.34,1.93
1.951,-1.64,0.17,-1.24,2.06
1.961,-1.62,0.43,-1.07,1.99
1.971,-1.44,0.53,-0.91,1.79
1.981,-1.20,0.54,-0.79,1.53
1.991,-0.99,0.71,-0.63,1.37
2.001,-0.69,0.96,-0.44,1.26
2.011,-0.41,1.19,-0.31,1.29
2.021,-0.13,1.41,-0.20,1.43
2.031,0.21,1.54,-0.13,1.56
2.041,0.44,1.41,-0.09,1.47
2.052,0.58,1.06,0.08,1.21
2.062,0.72,0.84,0.20,1.13
2.072,0.68,0.66,0.16,0.96
2.082,0.53,0.32,0.05,0.62
2.092,0.37,-0.14,-0.10,0.41
2.102,0.16,-0.62,-0.14,0.65
2.112,-0.07,-1.08,-0.11,1.09
2.122,-0.24,-1.42,-0.13,1.45
2.132,-0.39,-1.59,-0.15,1.64
2.142,-0.55,-1.55,-0.09,1.65
2.152,-0.71,-1.46,-0.04,1.63
2.162,-0.84,-1.35,0.04,1.60
2.172,-0.97,-1.16,0.08,1.51
2.182,-1.02,-0.83,0.10,1.32
2.192,-0.98,-0.47,0.22,1.11
2.202,-0.81,-0.23,0.33,0.91
2.212,-0.67,0.02,0.41,0.79
2.223,-0.52,0.04,0.51,0.73
2.232,-0.36,-0.19,0.46,0.62
2.243,-0.24,-0.51,0.21,0.60
2.253,-0.13,-0.75,0.08,0.76
2.263,-0.09,-0.85,0.15,0.87
2.273,-0.02,-0.79,0.22,0.82
2.283,0.20,-0.67,0.30,0.76
2.293,0.41,-0.54,0.61,0.91
2.303,0.62,-0.56,0.90,1.23
2.313,0.84,-0.73,1.12,1.58
2.323,0.95,-0.96,1.27,1.86
2.333,0.98,-1.12,1.20,1.91
2.343,0.98,-0.95,0.93,1.65
2.353,0.83,-0.57,0.81,1.29
2.363,0.59,-0.28,0.71,0.97
2.373,0.44,-0.07,0.68,0.81
2.383,0.34,0.05,0.79,0.86
2.393,0.29,0.01,0.97,1.01
2.404,0.36,-0.13,1.15,1.21
2.414,0.64,-0.24,1.08,1.27
2.424,0.89,-0.28,0.83,1.25
2.434,0.96,-0.29,0.84,1.31
2.444,0.95,-0.22,0.96,1.37
2.454,0.89,-0.15,1.17,1.48
2.464,0.87,-0.15,1.44,1.69
2.474,0.91,-0.22,1.74,1.97
2.484,0.97,-0.31,2.04,2.28
2.494,1.00,-0.23,2.24,2.47
2.504,1.12,0.06,2.40,2.65
2.514,1.32,0.86,2.03,2.57
2.524,1.24,1.91,1.41,2.68
2.534,0.77,2.57,1.21,2.94
2.544,-0.12,2.73,0.98,2.90
2.554,-1.06,2.60,0.64,2.88
2.564,-1.56,2.56,0.29,3.02
2.574,-1.69,2.48,0.15,3.01
2.585,-1.59,2.36,0.14,2.85
2.595,-1.31,2.22,0.02,2.58
2.605,-0.95,1.99,-0.13,2.21
2.615,-0.49,1.46,-0.23,1.55
2.625,0.22,0.60,-0.16,0.66
2.635,0.87,-0.31,-0.02,0.92
2.645,1.06,-1.00,-0.00,1.46
2.655,0.77,-1.43,-0.20,1.63
2.665,0.16,-1.61,-0.47,1.69
2.675,-0.51,-1.59,-0.68,1.80
2.685,-1.09,-1.50,-0.92,2.07
2.695,-1.52,-1.38,-1.13,2.34
2.705,-1.67,-1.29,-1.38,2.52
2.715,-1.53,-1.42,-1.63,2.65
2.725,-1.11,-1.57,-1.82,2.64
2.735,-0.60,-1.41,-2.00,2.52
2.745,-0.12,-1.05,-2.16,2.40
2.756,0.23,-0.53,-2.24,2.31
2.766,0.44,0.09,-2.12,2.16
2.776,0.50,0.65,-1.95,2.11
2.786,0.39,1.01,-1.75,2.05
2.796,0.11,1.07,-1.55,1.89
2.806,-0.11,0.96,-1.36,1.67
2.816,-0.23,0.73,-1.09,1.34
2.826,-0.32,0.51,-0.90,1.08
2.836,-0.39,0.31,-0.75,0.91
2.846,-0.41,0.13,-0.61,0.74
2.856,-0.40,-0.03,-0.49,0.63
2.866,-0.30,-0.21,-0.31,0.48
2.876,-0.17,-0.33,-0.06,0.38
2.886,0.03,-0.49,-0.00,0.49
2.896,0.17,-0.57,-0.15,0.61
2.906,0.31,-0.70,-0.26,0.81
2.917,0.43,-0.83,-0.38,1.01
2.927,0.46,-0.80,-0.41,1.01
2.937,0.58,-0.73,-0.27,0.97
2.947,0.80,-0.66,-0.07,1.04
2.957,0.93,-0.58,0.09,1.10
2.967,1.08,-0.52,0.19,1.22
2.977,1.25,-0.45,0.35,1.37
2.987,1.34,-0.35,0.47,1.47
2.997,1.35,-0.34,0.52,1.48
3.007,1.28,-0.35,0.49,1.41
3.017,1.14,-0.42,0.53,1.33
3.027,0.93,-0.55,0.58,1.22
3.037,0.71,-0.49,0.65,1.08
3.047,0.55,-0.60,0.68,1.06
3.057,0.43,-0.75,0.68,1.10
3.067,0.33,-0.81,0.75,1.15
3.077,0.38,-0.74,0.79,1.15
3.087,0.53,-0.58,0.68,1.04
3.097,0.64,-0.42,0.63,0.99
3.108,0.77,-0.38,0.65,1.07
3.117,0.80,-0.48,0.57,1.10
3.128,0.87,-0.62,0.58,1.22
3.138,1.04,-0.64,0.65,1.39
3.148,1.27,-0.43,0.61,1.48
3.158,1.39,-0.10,0.34,1.44
3.168,1.26,0.15,0.15,1.28
3.178,1.04,0.19,0.30,1.09
3.188,0.92,0.15,0.56,1.09
3.198,0.91,0.08,0.76,1.18
3.208,1.01,-0.00,0.82,1.30
3.218,1.08,-0.10,0.72,1.31
3.228,1.16,-0.21,0.61,1.32
3.238,1.19,-0.20,0.41,1.28
3.248,1.26,-0.19,0.54,1.38
3.258,1.57,-0.18,1.01,1.88
3.268,2.03,-0.11,1.29,2.41
3.278,2.55,0.16,1.30,2.87
3.289,3.01,0.44,1.30,3.31
3.299,3.34,0.74,1.38,3.69
3.309,3.40,0.97,1.49,3.84
3.319,3.03,0.99,1.30,3.44
3.329,2.30,1.26,1.05,2.82
3.339,1.44,1.79,1.01,2.51
3.349,0.92,1.98,1.18,2.49
3.359,0.67,1.96,1.17,2.38
3.369,0.33,1.99,0.63,2.11
3.379,0.02,2.02,-0.12,2.03
3.389,-0.33,2.11,-0.77,2.27
3.399,-0.98,2.16,-1.24,2.68
3.409,-1.78,1.97,-1.64,3.12
3.419,-2.43,1.60,-2.10,3.59
3.429,-3.00,0.97,-2.50,4.03
3.439,-3.38,0.10,-2.72,4.34
3.449,-3.41,-0.72,-2.69,4.40
3.459,-3.05,-1.31,-2.50,4.15
3.470,-2.39,-1.59,-2.40,3.74
3.480,-1.48,-1.59,-2.21,3.10
3.490,-0.59,-1.29,-1.82,2.30
3.500,0.06,-0.71,-1.25,1.44
3.510,0.50,-0.05,-0.69,0.85
3.520,0.70,0.61,-0.32,0.99
3.530,0.47,1.21,-0.19,1.31
3.540,-0.05,1.61,-0.20,1.62
3.550,-0.53,1.73,-0.19,1.82
3.560,-0.82,1.56,-0.15,1.77
3.570,-0.85,1.21,-0.23,1.49
3.580,-0.71,0.91,-0.35,1.21
3.590,-0.42,0.69,-0.49,0.95
3.600,-0.14,0.49,-0.63,0.81
3.610,-0.14,0.13,-0.75,0.77
3.620,-0.32,-0.32,-0.75,0.88
3.631,-0.45,-0.73,-0.56,1.02
3.641,-0.57,-0.97,-0.27,1.16
3.651,-0.69,-1.08,-0.14,1.29
3.661,-0.70,-1.20,-0.18,1.40
3.671,-0.76,-1.42,-0.16,1.62
3.681,-0.79,-1.45,-0.16,1.65
3.691,-0.76,-1.27,-0.10,1.48
3.701,-0.72,-1.13,0.06,1.35
3.711,-0.71,-1.03,0.30,1.28
3.721,-0.62,-0.94,0.40,1.19
3.731,-0.52,-0.95,0.42,1.16
3.741,-0.37,-0.92,0.42,1.07
3.751,-0.27,-0.85,0.49,1.02
3.761,-0.16,-0.85,0.55,1.02
3.771,-0.10,-1.00,0.49,1.12
3.781,-0.06,-1.22,0.38,1.28
3.791,-0.04,-1.45,0.52,1.54
3.802,-0.02,-1.66,0.63,1.78
3.812,0.03,-1.80,0.72,1.94
3.822,0.10,-1.76,0.88,1.97
3.832,0.31,-1.57,1.02,1.90
3.842,0.50,-1.38,1.25,1.93
3.852,0.54,-1.12,1.51,1.96
3.862,0.65,-0.83,1.58,1.90
3.872,0.77,-0.55,1.45,1.74
3.882,0.86,-0.39,1.31,1.61
3.892,0.91,-0.24,1.13,1.48
3.902,0.94,-0.13,1.19,1.52
3.912,0.95,-0.07,1.33,1.64
3.922,0.80,0.04,1.26,1.50
3.932,0.46,0.04,1.23,1.32
3.942,0.14,0.06,1.05,1.06
3.952,-0.20,0.04,1.16,1.18
3.962,-0.50,0.06,1.44,1.53
3.972,-0.46,0.15,1.81,1.87
3.983,-0.21,0.16,2.09,2.11
3.993,-0.00,0.25,2.27,2.28
4.002,0.33,0.60,2.43,2.52
4.013,0.70,1.38,2.36,2.82
4.023,0.93,2.53,1.99,3.35
4.033,1.04,3.62,1.65,4.11
4.043,0.85,4.46,1.47,4.77
4.053,0.10,4.48,1.37,4.69
4.063,-0.66,3.85,1.38,4.14
4.073,-0.90,3.50,1.16,3.79
4.083,-0.93,2.66,0.78,2.92
4.093,-0.68,1.48,0.83,1.82
4.103,-0.42,0.85,0.94,1.34
4.113,-0.35,0.22,0.59,0.72
4.123,0.09,-0.52,0.15,0.54
4.133,0.57,-1.21,-0.38,1.39
4.143,0.70,-1.72,-0.96,2.09
4.153,0.40,-1.94,-1.74,2.64
4.163,-0.05,-1.90,-2.37,3.03
4.173,-0.51,-1.53,-2.81,3.24
4.184,-1.00,-1.04,-3.14,3.45
4.194,-1.56,-0.69,-3.15,3.58
4.204,-2.01,-0.39,-2.91,3.55
4.214,-2.17,-0.03,-2.55,3.35
4.224,-2.13,0.21,-2.24,3.10
4.234,-1.88,0.18,-1.91,2.69
4.244,-1.45,0.03,-1.66,2.20
4.254,-0.93,-0.12,-1.41,1.70
4.264,-0.56,-0.12,-1.27,1.39
4.274,-0.22,-0.12,-1.21,1.23
4.284,0.06,-0.14,-1.06,1.07
4.294,0.20,-0.01,-0.92,0.94
4.304,0.23,-0.15,-0.82,0.87
4.314,0.17,-0.54,-0.73,0.92
4.324,0.21,-0.91,-0.61,1.11
4.334,0.36,-1.34,-0.42,1.45
4.344,0.57,-1.68,-0.30,1.80
4.355,0.74,-1.64,-0.23,1.82
4.365,0.93,-1.52,-0.21,1.80
4.375,1.04,-1.33,-0.13,1.69
4.385,1.03,-1.10,-0.03,1.51
4.395,0.99,-0.76,0.01,1.25
4.405,0.92,-0.48,-0.10,1.04
4.415,0.79,-0.31,-0.26,0.88
4.425,0.64,-0.23,-0.23,0.72
4.435,0.53,-0.29,-0.01,0.61
4.445,0.56,-0.25,0.35,0.71
4.455,0.77,-0.36,0.60,1.04
4.465,0.95,-0.50,0.72,1.29
4.475,1.05,-0.58,0.76,1.42
4.486,1.12,-0.70,0.76,1.52
4.495,1.04,-0.82,0.68,1.49
4.505,0.98,-0.86,0.58,1.43
4.515,1.00,-0.96,0.53,1.49
4.526,1.07,-0.99,0.60,1.58
4.536,1.14,-0.80,0.70,1.56
4.546,1.22,-0.53,0.70,1.50
4.556,1.28,-0.26,0.50,1.40
4.566,1.30,0.01,0.35,1.35
4.576,1.23,0.20,0.37,1.30
4.586,1.17,0.23,0.49,1.29
4.596,1.12,0.21,0.61,1.29
4.606,1.01,0.27,0.84,1.34
4.616,1.04,0.37,1.17,1.61
4.626,1.19,0.44,1.43,1.91
4.636,1.28,0.46,1.63,2.12
4.646,1.45,0.29,1.77,2.31
4.656,1.65,-0.04,1.97,2.57
4.666,1.94,-0.28,2.25,2.99
4.676,2.20,-0.31,2.42,3.28
4.686,2.09,0.16,2.17,3.02
4.696,1.64,0.79,1.85,2.59
4.706,1.52,1.06,1.69,2.51
4.717,1.34,1.51,1.51,2.52
4.727,0.65,2.26,0.71,2.46
4.737,-0.31,3.10,-0.46,3.15
4.747,-1.07,3.77,-1.37,4.15
4.757,-1.62,4.00,-2.43,4.95
4.767,-2.05,3.58,-3.66,5.51
4.777,-2.73,2.46,-4.48,5.80
4.787,-3.40,1.31,-4.58,5.85
4.797,-3.56,0.15,-4.04,5.38
4.807,-3.32,-0.87,-3.21,4.69
4.817,-2.54,-1.47,-2.35,3.76
4.827,-1.51,-1.44,-1.70,2.69
4.837,-0.48,-0.97,-1.36,1.74
4.847,0.42,-0.42,-1.20,1.34
4.858,1.11,-0.00,-1.03,1.51
4.867,1.36,0.23,-0.78,1.59
4.878,1.12,0.55,-0.59,1.38
4.888,0.83,1.14,-0.49,1.49
4.898,0.35,1.64,-0.42,1.73
4.908,-0.49,1.79,-0.38,1.89
4.918,-1.23,1.58,-0.26,2.02
4.928,-1.24,1.28,-0.14,1.79
4.938,-0.72,1.14,-0.09,1.35
4.948,-0.48,0.90,-0.34,1.08
4.958,-0.41,0.36,-0.62,0.82
4.968,-0.11,-0.09,-0.74,0.76
4.978,0.11,-0.44,-0.75,0.88
4.988,0.14,-0.72,-0.76,1.06
4.998,0.04,-1.04,-0.75,1.29
5.008,-0.21,-1.47,-0.57,1.59
5.018,-0.56,-1.82,-0.25,1.92
5.028,-0.92,-2.11,-0.09,2.30
5.038,-1.18,-2.25,0.07,2.54
5.048,-1.33,-2.32,0.32,2.69
5.059,-1.24,-2.34,0.44,2.68
5.068,-1.01,-2.24,0.47,2.51
5.079,-0.77,-2.12,0.46,2.30
5.089,-0.55,-1.95,0.36,2.05
5.099,-0.37,-1.70,0.18,1.74
5.109,-0.32,-1.36,0.15,1.40
5.119,-0.30,-1.14,0.34,1.23
5.129,-0.23,-1.14,0.44,1.25
5.139,-0.04,-1.25,0.31,1.29
5.149,0.16,-1.36,0.43,1.44
5.159,0.33,-1.58,0.75,1.78
5.169,0.52,-1.82,1.09,2.18
5.179,0.80,-1.86,1.27,2.39
5.189,1.08,-1.67,1.26,2.35
5.199,1.00,-1.19,1.02,1.86
5.209,0.62,-0.63,0.83,1.22
5.219,0.24,-0.20,0.89,0.94
5.230,0.07,0.30,1.31,1.35
5.240,0.04,0.74,1.73,1.88
5.250,-0.06,1.02,1.47,1.79
5.260,-0.01,1.08,1.27,1.67
5.270,0.19,1.05,1.25,1.64
5.280,0.15,0.92,1.26,1.57
5.290,-0.20,0.75,1.12,1.36
5.300,-0.07,0.53,1.40,1.50
5.310,0.68,0.57,1.89,2.09
5.320,1.39,1.31,1.94,2.72
5.330,1.60,2.52,1.51,3.34
5.340,1.33,3.95,1.10,4.31
5.350,0.76,5.38,0.84,5.50
5.360,-0.14,6.52,0.54,6.54
5.370,-1.17,7.08,0.69,7.21
5.380,-1.93,6.55,0.85,6.88
5.390,-2.09,4.39,0.91,4.94
5.400,-1.61,1.38,1.26,2.47
5.411,-0.76,-1.52,1.43,2.22
5.421,0.28,-3.40,1.33,3.66
5.431,0.94,-3.97,1.15,4.24
5.441,1.33,-3.64,0.82,3.96
5.451,1.58,-2.75,0.13,3.17
5.461,1.60,-1.80,-1.15,2.66
5.471,1.14,-0.92,-2.39,2.80
5.481,0.34,-0.05,-3.16,3.18
5.491,-0.50,0.64,-3.59,3.68
5.501,-1.44,0.85,-3.57,3.94
5.511,-2.34,0.60,-3.29,4.08
5.521,-2.71,0.38,-2.89,3.98
5.531,-2.58,0.27,-2.40,3.53
5.541,-2.20,0.13,-1.94,2.94
5.551,-1.76,-0.09,-1.44,2.28
5.561,-1.29,-0.27,-0.92,1.61
5.571,-0.72,-0.49,-0.57,1.04
5.581,-0.22,-0.64,-0.43,0.80
5.592,0.17,-0.83,-0.42,0.95
5.601,0.39,-0.83,-0.44,1.02
5.612,0.47,-0.67,-0.46,0.94
5.622,0.73,-0.80,-0.56,1.22
5.632,0.92,-1.13,-0.50,1.54
5.642,1.04,-1.40,-0.43,1.80
5.652,1.25,-1.71,-0.39,2.16
5.662,1.34,-1.90,-0.40,2.36
5.672,1.34,-1.87,-0.46,2.35
5.682,1.29,-1.76,-0.56,2.26
5.692,1.11,-1.46,-0.56,1.92
5.702,0.91,-0.97,-0.39,1.39
5.712,0.67,-0.43,-0.11,0.80
5.722,0.37,-0.13,0.13,0.41
5.732,0.15,-0.14,0.25,0.33
5.742,0.08,-0.25,0.35,0.44
5.752,0.21,-0.46,0.38,0.64
5.762,0.55,-0.62,0.50,0.97
5.773,0.98,-0.72,0.61,1.36
5.783,1.41,-0.78,0.68,1.75
5.793,1.76,-0.83,0.63,2.04
5.803,2.03,-0.85,0.60,2.28
5.813,2.12,-0.86,0.53,2.34
5.823,1.97,-0.95,0.38,2.22
5.833,1.77,-1.07,0.35,2.10
5.843,1.60,-1.00,0.47,1.94
5.853,1.44,-0.70,0.58,1.70
5.863,1.16,-0.39,0.49,1.32
5.873,0.89,-0.16,0.32,0.96
5.883,0.71,0.18,0.36,0.82
5.893,0.63,0.43,0.52,0.92
5.903,0.67,0.41,0.84,1.15
5.913,0.94,0.37,1.23,1.59
5.923,1.59,0.45,1.55,2.27
5.933,2.34,0.66,1.61,2.91
5.944,2.81,0.67,1.54,3.28
5.954,2.83,0.36,1.46,3.20
5.964,2.56,-0.04,1.40,2.92
5.974,2.04,0.01,1.30,2.42
5.984,1.15,0.51,1.27,1.79
5.994,0.60,0.97,1.36,1.78
6.004,0.50,1.52,1.50,2.19
6.014,0.05,2.04,1.21,2.37
6.024,-0.55,2.40,0.25,2.47
6.034,-0.91,2.82,-1.08,3.15
6.044,-1.48,3.16,-2.58,4.34
6.054,-2.16,2.92,-3.63,5.13
6.064,-2.99,2.12,-4.13,5.52
6.074,-4.07,1.39,-4.25,6.04
6.084,-4.66,0.79,-3.79,6.06
6.094,-4.56,0.43,-2.98,5.47
6.104,-3.73,0.38,-2.18,4.34
6.114,-2.33,0.41,-1.59,2.85
6.125,-1.07,0.45,-1.29,1.73
6.135,-0.01,0.70,-1.07,1.28
6.145,0.92,0.82,-1.02,1.60
6.155,1.57,0.63,-0.97,1.95
6.165,1.84,0.47,-0.71,2.03
6.175,1.66,0.65,-0.30,1.81
6.185,0.88,1.14,0.01,1.44
6.195,-0.16,1.61,-0.10,1.62
6.205,-0.95,1.60,-0.29,1.88
6.215,-1.45,1.17,-0.22,1.88
6.225,-1.20,0.66,-0.07,1.37
6.235,-0.56,0.28,-0.19,0.65
6.245,-0.28,-0.27,-0.57,0.69
6.255,-0.20,-0.94,-0.91,1.32
6.265,0.03,-1.53,-1.04,1.85
6.275,0.07,-1.90,-1.12,2.21
6.285,-0.26,-1.91,-1.13,2.23
6.295,-0.64,-1.79,-0.96,2.13
6.306,-1.07,-1.69,-0.71,2.12
6.316,-1.66,-1.60,-0.45,2.34
6.326,-2.06,-1.43,-0.09,2.51
6.336,-2.23,-1.25,0.20,2.56
6.346,-2.24,-1.28,0.50,2.63
6.356,-2.00,-1.40,0.74,2.55
6.366,-1.46,-1.63,0.79,2.33
6.376,-0.78,-1.93,0.79,2.23
6.386,-0.06,-2.21,0.77,2.34
6.396,0.61,-2.43,0.78,2.63
6.406,1.11,-2.46,0.76,2.81
6.416,1.35,-2.26,0.62,2.70
6.426,1.36,-1.88,0.57,2.39
6.436,1.30,-1.50,0.63,2.09
6.446,1.26,-1.23,0.76,1.92
6.456,1.15,-1.03,1.01,1.84
6.466,0.99,-0.79,1.41,1.90
6.476,0.80,-0.40,1.46,1.71
6.486,0.56,0.05,1.09,1.22
6.497,0.19,0.25,0.82,0.87
6.507,-0.09,0.27,0.82,0.87
6.517,0.07,0.33,1.18,1.23
6.527,0.52,0.23,1.47,1.58
6.537,0.91,-0.01,1.37,1.65
6.547,1.22,-0.16,1.21,1.72
6.557,1.33,-0.01,1.15,1.75
6.567,1.10,0.18,0.99,1.49
6.577,0.74,0.40,1.03,1.33
6.587,0.60,0.46,1.53,1.70
6.597,0.75,0.50,2.10,2.28
6.607,1.18,1.05,2.44,2.91
6.617,1.50,2.37,2.39,3.68
6.627,1.40,4.13,1.61,4.65
6.637,0.94,5.60,0.81,5.74
6.647,0.28,6.20,0.63,6.24
6.657,-0.34,5.92,0.32,5.94
6.668,-1.00,4.55,-0.45,4.68
6.678,-1.71,2.78,-1.02,3.42
6.688,-2.12,1.60,-1.01,2.85
6.698,-2.21,0.86,-0.33,2.39
6.708,-1.92,0.07,0.07,1.92
6.718,-1.46,-0.97,-0.21,1.77
6.728,-0.82,-2.05,-0.54,2.27
6.738,-0.37,-2.67,-0.99,2.87
6.748,-0.17,-2.77,-1.72,3.27
6.758,-0.12,-2.46,-2.36,3.41
6.768,-0.19,-1.76,-2.67,3.20
6.778,-0.62,-0.82,-2.60,2.80
6.788,-1.31,0.09,-2.32,2.67
6.798,-1.97,0.87,-2.13,3.03
6.808,-2.42,1.37,-2.14,3.50
6.818,-2.57,1.53,-2.17,3.69
6.829,-2.41,1.30,-2.05,3.42
6.838,-2.14,0.72,-1.90,2.95
6.849,-1.83,0.09,-1.58,2.42
6.859,-1.44,-0.25,-1.19,1.88
6.869,-1.00,-0.53,-1.03,1.53
6.879,-0.51,-0.82,-0.86,1.30
6.889,-0.27,-1.00,-0.80,1.31
6.899,-0.10,-0.96,-0.75,1.22
6.909,0.07,-1.02,-0.77,1.28
6.919,0.24,-1.19,-0.85,1.48
6.929,0.45,-1.31,-0.88,1.64
6.939,0.62,-1.34,-0.79,1.67
6.949,0.80,-1.24,-0.80,1.68
6.959,0.90,-1.09,-0.82,1.63
6.969,0.92,-0.96,-0.71,1.51
6.979,0.95,-0.80,-0.53,1.35
6.989,1.06,-0.58,-0.36,1.26
6.999,1.17,-0.30,-0.18,1.22
7.010,1.15,-0.10,-0.05,1.15
7.019,1.08,-0.12,0.01,1.09
7.030,0.91,-0.24,0.07,0.95
7.040,0.84,-0.38,0.18,0.94
7.050,0.80,-0.52,0.32,1.00
7.060,0.69,-0.70,0.47,1.09
7.070,0.58,-0.91,0.57,1.22
7.080,0.60,-1.07,0.71,1.42
7.090,0.72,-1.12,0.84,1.57
7.100,0.86,-1.05,0.86,1.61
7.110,1.03,-0.93,0.81,1.60
7.120,1.21,-0.78,0.71,1.61
7.130,1.32,-0.66,0.59,1.59
7.140,1.43,-0.55,0.47,1.60
7.150,1.46,-0.56,0.44,1.62
7.160,1.43,-0.56,0.37,1.58
7.170,1.35,-0.38,0.20,1.42
7.180,1.15,-0.06,0.29,1.19
7.190,0.97,0.27,0.62,1.18
7.201,0.81,0.46,0.97,1.35
7.211,0.67,0.48,1.39,1.62
7.221,0.75,0.40,1.65,1.86
7.231,0.96,0.20,1.73,1.99
7.241,1.12,0.00,1.79,2.11
7.251,1.24,-0.23,1.84,2.23
7.261,1.30,-0.50,1.97,2.41
7.271,1.35,-0.54,2.06,2.53
7.281,1.16,-0.08,1.98,2.30
7.291,0.77,0.60,1.89,2.13
7.301,0.87,0.99,1.95,2.36
7.311,1.20,1.11,2.10,2.66
7.321,1.19,1.49,1.52,2.43
7.331,1.07,2.12,0.29,2.39
7.341,0.91,2.80,-0.85,3.06
7.351,0.52,3.38,-1.85,3.89
7.362,-0.25,3.46,-2.93,4.54
7.372,-1.46,3.07,-3.77,5.08
7.382,-2.82,2.47,-4.13,5.57
7.392,-3.88,1.64,-3.91,5.75
7.402,-4.53,0.57,-3.27,5.61
7.412,-4.46,-0.30,-2.47,5.10
7.422,-3.52,-0.75,-1.83,4.04
7.432,-2.23,-0.99,-1.55,2.89
7.442,-0.95,-1.08,-1.38,2.00
7.452,0.03,-0.95,-1.25,1.57
7.462,0.78,-0.64,-1.12,1.51
7.472,1.27,-0.21,-1.03,1.65
7.482,1.47,0.32,-0.95,1.78
7.492,1.30,0.81,-0.91,1.78
7.502,0.98,1.26,-0.75,1.76
7.512,0.43,1.72,-0.52,1.85
7.522,-0.21,1.98,-0.38,2.02
7.533,-0.71,1.79,-0.35,1.95
7.543,-0.85,1.37,-0.45,1.67
7.553,-0.60,1.04,-0.52,1.31
7.563,-0.35,0.63,-0.53,0.90
7.573,-0.30,0.07,-0.63,0.70
7.583,-0.33,-0.40,-0.79,0.95
7.593,-0.43,-0.82,-0.85,1.25
7.603,-0.62,-1.16,-0.88,1.58
7.613,-0.84,-1.49,-0.79,1.88
7.623,-1.08,-1.75,-0.56,2.13
7.633,-1.28,-1.84,-0.19,2.25
7.643,-1.21,-1.79,0.15,2.17
7.653,-1.06,-1.84,0.29,2.14
7.663,-0.97,-1.86,0.29,2.12
7.673,-0.85,-1.78,0.26,1.99
7.683,-0.70,-1.70,0.35,1.87
7.693,-0.59,-1.69,0.46,1.85
7.703,-0.40,-1.68,0.45,1.79
7.713,-0.21,-1.70,0.37,1.75
7.723,-0.15,-1.67,0.33,1.71
7.734,-0.15,-1.56,0.38,1.61
7.744,-0.18,-1.36,0.50,1.46
7.754,-0.20,-1.28,0.67,1.45
7.764,-0.15,-1.28,0.68,1.45
7.774,-0.04,-1.34,0.59,1.46
7.784,0.13,-1.43,0.58,1.55
7.794,0.37,-1.51,0.75,1.72
7.804,0.65,-1.49,1.07,1.95
7.814,0.99,-1.34,1.31,2.12
7.824,1.15,-0.98,1.33,2.01
7.834,0.92,-0.36,0.93,1.36
7.844,0.67,-0.04,0.98,1.19
7.854,0.52,0.16,1.03,1.17
7.864,0.43,0.50,1.29,1.45
7.874,0.35,0.62,1.41,1.58
7.884,0.44,0.64,1.34,1.55
7.895,0.66,0.63,1.44,1.70
7.904,0.68,0.55,1.61,1.83
7.915,0.63,0.44,1.62,1.79
7.925,0.66,0.37,1.77,1.92
7.935,1.02,0.46,2.29,2.55
7.945,1.68,0.58,2.67,3.20
7.955,2.24,0.68,2.83,3.67
7.965,2.52,1.34,2.81,4.00
7.975,2.40,2.80,2.37,4.38
7.985,1.97,4.53,1.61,5.20
7.995,1.39,5.85,1.32,6.16
8.005,0.39,6.38,1.27,6.52
8.015,-0.94,5.80,0.63,5.91
8.025,-2.00,4.46,-0.24,4.89
8.035,-2.49,2.56,-0.29,3.58
8.045,-2.36,1.05,-0.11,2.58
8.055,-2.17,-0.20,0.17,2.18
8.065,-1.72,-1.38,0.33,2.23
8.076,-1.00,-2.32,0.07,2.53
8.086,-0.40,-2.95,-0.40,3.01
8.096,0.00,-3.14,-1.10,3.33
8.106,0.11,-2.91,-2.06,3.56
8.116,0.05,-2.39,-3.00,3.84
8.126,-0.28,-1.64,-3.27,3.67
8.136,-0.98,-0.71,-2.98,3.21
8.146,-1.82,0.29,-2.63,3.21
8.156,-2.40,1.14,-2.36,3.55
8.166,-2.54,1.72,-2.10,3.71
8.176,-2.33,1.74,-1.88,3.47
8.186,-1.99,1.18,-1.65,2.84
8.196,-1.64,0.45,-1.45,2.24
8.206,-1.31,-0.02,-1.16,1.75
8.216,-0.85,-0.57,-0.96,1.41
8.226,-0.42,-1.17,-0.88,1.52
8.236,-0.24,-1.41,-0.82,1.65
8.246,-0.11,-1.47,-0.79,1.67
8.257,-0.04,-1.62,-0.82,1.82
8.267,0.08,-1.78,-0.82,1.97
8.277,0.28,-1.90,-0.81,2.08
8.287,0.50,-1.87,-0.78,2.09
8.297,0.70,-1.61,-0.71,1.90
8.307,0.82,-1.28,-0.69,1.67
8.317,0.81,-0.85,-0.70,1.36
8.327,0.82,-0.35,-0.70,1.13
8.337,0.83,0.07,-0.60,1.02
8.347,0.88,0.17,-0.27,0.94
8.357,0.94,-0.08,0.13,0.96
8.367,0.97,-0.25,0.41,1.08
8.377,1.12,-0.49,0.56,1.35
8.387,1.23,-0.79,0.71,1.62
8.397,1.10,-0.92,0.92,1.70
8.407,0.84,-1.09,1.11,1.77
8.417,0.69,-1.37,1.24,1.97
8.427,0.66,-1.59,1.35,2.19
8.438,0.61,-1.58,1.22,2.09
8.447,0.62,-1.43,0.94,1.82
8.458,0.66,-1.19,0.71,1.53
8.468,0.67,-0.83,0.50,1.18
8.478,0.66,-0.56,0.32,0.92
8.488,0.51,-0.47,0.27,0.75
8.498,0.50,-0.44,0.42,0.79
8.508,0.82,-0.31,0.61,1.06
8.518,1.08,-0.08,0.78,1.34
8.528,1.08,0.14,1.03,1.50
8.538,1.02,0.25,1.51,1.84
8.548,1.02,0.47,2.10,2.38
8.558,1.06,0.57,2.54,2.81
8.568,1.27,0.34,2.89,3.18
8.578,1.54,-0.08,2.86,3.25
8.588,1.66,-0.42,2.48,3.01
8.598,1.43,-0.19,1.93,2.41
8.608,0.94,0.77,1.29,1.77
8.618,0.64,1.62,1.07,2.04
8.629,0.69,2.16,1.45,2.69
8.638,0.43,2.97,1.34,3.29
8.649,-0.07,3.81,0.16,3.82
8.659,-0.16,4.42,-1.38,4.63
8.669,0.07,4.57,-2.88,5.41
8.679,-0.08,3.96,-4.23,5.80
8.689,-1.02,2.74,-5.02,5.81
8.699,-2.21,1.43,-5.10,5.74
8.709,-2.98,0.09,-4.23,5.17
8.719,-3.12,-1.16,-2.71,4.30
8.729,-2.62,-1.87,-1.64,3.61
8.739,-1.68,-1.86,-1.25,2.80
8.749,-0.81,-1.25,-1.05,1.82
8.759,-0.14,-0.44,-0.97,1.08
8.769,0.45,0.20,-0.79,0.93
8.779,0.90,0.69,-0.67,1.32
8.790,1.12,1.17,-0.70,1.76
8.800,1.21,1.67,-0.77,2.20
8.810,0.92,2.06,-0.76,2.38
8.820,0.43,1.95,-0.78,2.14
8.830,-0.10,1.77,-0.74,1.92
8.840,-0.05,1.70,-0.64,1.81
8.850,-0.28,1.19,-0.50,1.32
8.860,-0.53,0.40,-0.43,0.79
8.870,-0.47,-0.15,-0.48,0.69
8.880,-0.36,-0.44,-0.50,0.76
8.890,-0.38,-0.74,-0.58,1.02
8.900,-0.42,-0.93,-0.59,1.18
8.910,-0.52,-1.28,-0.55,1.48
8.920,-0.81,-1.60,-0.51,1.86
8.930,-1.06,-1.88,-0.43,2.20
8.940,-1.21,-2.09,-0.36,2.44
8.950,-1.29,-2.15,-0.18,2.52
8.961,-1.28,-2.21,0.17,2.56
8.970,-1.11,-2.23,0.32,2.51
8.981,-0.93,-2.19,0.28,2.40
8.991,-0.78,-2.17,0.21,2.32
9.001,-0.72,-2.18,0.26,2.31
9.011,-0.64,-2.14,0.41,2.27
9.021,-0.47,-2.02,0.59,2.16
9.031,-0.24,-1.88,0.66,2.01
9.041,0.06,-1.73,0.59,1.83
9.051,0.35,-1.54,0.56,1.67
9.061,0.51,-1.47,0.75,1.73
9.071,0.66,-1.56,1.01,1.97
9.081,0.93,-1.62,1.17,2.21
9.091,1.20,-1.46,1.17,2.23
9.101,1.34,-1.08,0.96,1.97
9.111,1.28,-0.72,0.91,1.72
9.121,1.11,-0.40,0.83,1.44
9.131,0.91,-0.11,0.89,1.28
9.141,0.70,0.10,1.10,1.31
9.151,0.52,0.40,1.07,1.26
9.161,0.47,0.84,1.00,1.39
9.172,0.38,1.16,1.04,1.60
9.182,-0.01,1.41,1.29,1.91
9.192,-0.51,1.43,1.47,2.12
9.202,-0.55,1.26,1.84,2.30
9.212,0.22,0.99,2.47,2.67
9.222,1.48,0.76,2.82,3.27
9.232,2.54,1.01,2.94,4.01
9.242,3.08,2.01,2.79,4.61
9.252,3.09,3.65,1.87,5.14
9.262,2.60,4.87,1.27,5.67
9.272,1.52,5.11,0.97,5.42
9.282,-0.15,4.42,0.64,4.46
9.292,-1.68,3.25,-0.40,3.68
9.302,-2.51,2.63,-0.92,3.75
9.312,-2.94,2.63,-0.75,4.02
9.323,-3.07,2.25,-0.46,3.84
9.333,-2.75,1.21,-0.46,3.04
9.343,-1.98,-0.19,-0.64,2.09
9.353,-1.05,-1.48,-0.96,2.05
9.363,-0.13,-2.31,-1.41,2.71
9.373,0.40,-2.57,-2.11,3.35
9.383,0.69,-2.35,-2.65,3.61
9.393,0.64,-1.85,-2.78,3.40
9.403,-0.06,-1.16,-2.69,2.93
9.413,-1.08,-0.35,-2.39,2.65
9.423,-1.93,0.33,-2.24,2.98
9.433,-2.46,0.74,-2.12,3.33
9.443,-2.61,0.86,-1.84,3.31
9.453,-2.38,0.56,-1.51,2.88
9.463,-2.00,-0.03,-1.26,2.36
9.473,-1.48,-0.62,-1.09,1.94
9.483,-0.97,-0.81,-0.96,1.59
9.493,-0.41,-1.09,-0.91,1.48
9.504,0.02,-1.26,-0.82,1.50
9.514,0.16,-1.04,-0.92,1.39
9.524,0.32,-0.80,-1.08,1.38
9.534,0.33,-0.76,-1.22,1.48
9.544,0.34,-0.90,-1.20,1.54
9.554,0.35,-1.05,-1.04,1.52
9.564,0.45,-1.07,-0.91,1.48
9.574,0.50,-1.03,-0.81,1.40
9.584,0.58,-0.95,-0.67,1.30
9.594,0.72,-0.82,-0.49,1.20
9.604,0.80,-0.70,-0.31,1.11
9.614,0.83,-0.62,-0.23,1.06
9.624,0.87,-0.60,-0.20,1.08
9.634,0.97,-0.65,-0.11,1.17
9.644,1.11,-0.63,-0.06,1.28
9.654,1.12,-0.66,0.02,1.30
9.664,1.07,-0.71,0.26,1.31
9.675,1.12,-0.87,0.51,1.50
9.685,1.20,-0.93,0.75,1.69
9.695,1.30,-0.91,0.97,1.86
9.705,1.39,-0.97,1.18,2.07
9.715,1.42,-1.04,1.19,2.13
9.725,1.52,-1.09,0.99,2.11
9.735,1.74,-1.02,0.82,2.17
9.745,1.94,-0.73,0.72,2.19
9.755,1.93,-0.39,0.71,2.09
9.765,1.75,-0.11,0.61,1.86
9.775,1.45,0.13,0.63,1.59
9.785,1.13,0.41,0.68,1.38
9.795,0.85,0.50,0.84,1.29
9.805,0.65,0.46,1.13,1.39
9.815,0.59,0.38,1.39,1.56
9.825,0.65,0.29,1.66,1.80
9.835,0.65,0.15,1.78,1.90
9.845,0.60,0.18,1.75,1.86
9.856,0.53,0.30,1.62,1.73
9.866,0.28,0.33,1.65,1.71
9.876,-0.10,0.42,1.53,1.59
9.886,-0.50,0.95,1.23,1.63
9.896,-0.56,1.55,1.35,2.13
9.906,0.13,1.91,1.80,2.63
9.916,0.65,2.27,1.51,2.80
9.926,0.54,2.69,0.12,2.75
9.936,0.41,2.92,-1.26,3.20
9.946,0.61,2.99,-2.47,3.93
9.956,0.52,2.54,-3.61,4.45
9.966,-0.48,1.58,-4.39,4.69
9.976,-2.16,0.61,-4.56,5.08
9.986,-3.46,-0.22,-4.24,5.48
9.996,-3.87,-0.72,-3.52,5.28
10.006,-3.48,-0.80,-2.58,4.40
10.016,-2.70,-0.42,-2.01,3.39
10.026,-1.81,0.08,-1.56,2.40
10.037,-0.91,0.56,-1.23,1.63
10.047,0.06,0.96,-1.13,1.48
10.057,0.80,1.25,-1.11,1.86
10.067,1.30,1.50,-1.09,2.27
10.077,1.29,1.72,-0.82,2.30
10.087,0.71,2.01,-0.45,2.18
10.097,0.08,1.95,-0.23,1.96
10.107,-0.25,1.71,-0.24,1.74
10.117,-0.05,1.22,-0.16,1.24
10.127,0.15,0.46,-0.07,0.49
10.137,0.35,-0.52,-0.12,0.64
10.147,0.57,-1.28,-0.36,1.45
10.157,0.80,-1.79,-0.59,2.05
10.167,0.87,-1.95,-0.75,2.26
10.178,0.62,-1.79,-0.85,2.08
10.187,0.20,-1.68,-0.82,1.88
10.198,-0.31,-1.57,-0.70,1.75
10.207,-0.78,-1.35,-0.56,1.66
10.217,-1.25,-1.15,-0.40,1.75
10.228,-1.70,-0.96,-0.17,1.96
10.238,-2.05,-0.90,0.15,2.24
10.248,-2.17,-0.88,0.44,2.39
10.258,-2.00,-0.91,0.61,2.28
10.268,-1.59,-1.00,0.70,2.00
10.278,-1.08,-1.26,0.73,1.81
10.288,-0.58,-1.64,0.63,1.85
10.298,-0.14,-1.96,0.49,2.02
10.308,0.21,-2.12,0.45,2.18
10.318,0.48,-2.11,0.49,2.21
10.328,0.59,-2.00,0.72,2.21
10.338,0.66,-1.91,0.96,2.24
10.348,0.79,-1.84,1.10,2.29
10.358,0.95,-1.80,1.08,2.31
10.368,1.07,-1.65,1.08,2.25
10.378,0.97,-1.29,0.98,1.89
10.388,0.48,-0.67,0.42,0.93
10.399,0.05,-0.42,0.59,0.73
10.409,-0.27,0.01,0.37,0.46
10.419,-0.51,0.49,0.60,0.93
10.429,-0.52,0.79,0.65,1.15
10.439,-0.37,0.77,0.44,0.96
10.449,-0.57,0.58,0.30,0.86
10.459,-1.12,0.60,0.83,1.51
10.469,-1.04,0.50,1.89,2.22
10.479,0.21,0.44,2.39,2.44
10.489,2.11,0.91,2.60,3.47
10.499,3.61,1.40,2.93,4.85
10.509,4.39,1.53,3.05,5.56
10.519,4.72,1.33,3.23,5.87
10.529,4.87,1.30,3.24,6.00
10.539,4.64,2.07,2.71,5.76
10.549,3.68,3.30,2.08,5.37
10.559,2.18,4.05,1.79,4.93
10.570,0.33,3.84,1.66,4.20
10.580,-1.73,2.80,1.03,3.44
10.590,-3.30,2.02,-0.16,3.87
10.600,-4.08,2.18,-1.13,4.77
10.610,-4.42,2.81,-1.31,5.40
10.620,-4.07,2.59,-1.12,4.95
10.630,-2.78,1.36,-1.21,3.32
10.640,-1.40,0.07,-1.56,2.10
10.650,-0.22,-0.88,-1.86,2.07
10.660,0.39,-1.65,-2.55,3.06
10.670,0.62,-2.18,-3.25,3.96
10.680,0.55,-2.39,-3.15,4.00
10.690,-0.18,-2.12,-2.75,3.47
10.700,-1.25,-1.29,-2.34,2.95
10.710,-2.26,-0.30,-1.94,2.99
10.720,-2.94,0.52,-1.80,3.49
10.730,-3.24,0.93,-1.60,3.74
10.740,-3.16,0.91,-1.29,3.53
10.751,-2.63,0.47,-1.11,2.89
10.761,-1.87,0.05,-1.02,2.13
10.771,-1.14,-0.30,-1.00,1.55
10.781,-0.56,-0.61,-1.20,1.45
10.791,-0.21,-0.81,-1.29,1.54
10.801,0.05,-1.03,-1.28,1.64
10.811,0.19,-1.32,-1.17,1.78
10.821,0.24,-1.63,-1.08,1.97
10.831,0.27,-1.80,-1.01,2.09
10.841,0.28,-1.80,-0.97,2.07
10.851,0.31,-1.68,-0.85,1.91
10.861,0.28,-1.44,-0.76,1.65
10.871,0.30,-1.16,-0.74,1.41
10.881,0.34,-0.88,-0.76,1.21
10.891,0.35,-0.52,-0.64,0.90
10.901,0.43,-0.22,-0.42,0.64
10.911,0.59,0.05,-0.21,0.63
10.921,0.74,-0.06,-0.01,0.74
10.931,0.86,-0.33,0.21,0.94
10.942,0.95,-0.73,0.44,1.28
10.952,0.98,-1.08,0.66,1.60
10.962,1.12,-1.04,0.86,1.75
10.972,1.24,-0.85,0.92,1.76
10.982,1.29,-0.72,0.92,1.74
10.992,1.28,-0.73,0.98,1.77
11.002,1.11,-0.79,0.94,1.65
11.012,0.95,-0.84,0.84,1.52
11.022,0.93,-0.94,0.95,1.63
11.032,0.97,-0.95,1.08,1.73
11.042,1.03,-0.79,0.99,1.63
11.052,1.07,-0.53,0.78,1.43
11.062,1.01,-0.37,0.70,1.29
11.072,0.94,-0.38,0.76,1.26
11.082,0.79,-0.41,0.88,1.25
11.092,0.70,-0.41,1.04,1.32
11.102,0.53,-0.35,1.30,1.45
11.113,0.44,-0.26,1.60,1.68
11.123,0.60,-0.25,1.90,2.01
11.133,0.92,-0.24,2.08,2.28
11.143,1.25,-0.15,2.06,2.42
11.153,1.46,0.05,2.02,2.50
11.163,1.48,0.36,2.05,2.55
11.173,1.23,0.62,1.99,2.42
11.183,0.74,1.19,1.77,2.26
11.193,0.35,2.08,1.57,2.62
11.203,0.72,2.61,1.77,3.23
11.213,1.04,2.89,1.91,3.61
11.223,0.99,3.07,1.20,3.44
11.233,1.12,3.32,0.05,3.50
11.243,1.14,3.76,-1.19,4.11
11.253,0.59,4.19,-2.65,4.99
11.263,-0.29,3.99,-4.00,5.66
11.273,-1.56,3.11,-4.66,5.82
11.284,-2.87,1.90,-4.62,5.76
11.294,-3.54,0.47,-3.94,5.32
11.304,-3.55,-0.87,-2.89,4.66
11.314,-2.81,-1.74,-2.01,3.87
11.324,-1.49,-2.15,-1.43,2.98
11.334,-0.20,-2.00,-1.31,2.40
11.344,0.70,-1.42,-1.42,2.13
11.354,1.12,-0.69,-1.48,1.98
11.364,1.28,-0.02,-1.36,1.87
11.374,1.22,0.51,-1.25,1.82
11.384,0.89,0.93,-1.16,1.74
11.394,0.24,1.31,-1.02,1.68
11.404,-0.53,1.51,-0.85,1.81
11.414,-1.11,1.50,-0.69,1.99
11.424,-1.13,1.32,-0.64,1.85
11.434,-0.88,1.10,-0.63,1.55
11.445,-0.84,0.72,-0.73,1.33
11.454,-0.66,0.11,-0.78,1.03
11.464,-0.44,-0.42,-0.69,0.92
11.475,-0.30,-0.78,-0.60,1.02
11.485,-0.38,-0.99,-0.50,1.17
11.495,-0.48,-1.06,-0.42,1.23
11.505,-0.70,-1.17,-0.36,1.41
11.515,-0.99,-1.44,-0.19,1.75
11.525,-1.26,-1.63,0.04,2.07
11.535,-1.42,-1.79,0.16,2.29
11.545,-1.33,-1.95,0.14,2.36
11.555,-1.11,-2.03,0.19,2.33
11.565,-0.88,-2.00,0.34,2.21
11.575,-0.58,-1.96,0.47,2.10
11.585,-0.22,-2.01,0.54,2.09
11.595,0.18,-2.04,0.59,2.13
11.605,0.55,-1.95,0.55,2.10
11.615,0.75,-1.71,0.55,1.95
11.625,0.76,-1.55,0.69,1.86
11.636,0.70,-1.55,0.89,1.91
11.646,0.69,-1.63,1.01,2.04
11.656,0.70,-1.74,1.08,2.16
11.666,0.72,-1.67,1.08,2.12
11.676,0.82,-1.45,1.12,2.00
11.686,0.79,-1.18,1.34,1.95
11.696,0.42,-0.56,0.87,1.12
11.706,0.04,0.00,0.59,0.59
11.716,-0.05,0.32,0.64,0.72
11.726,-0.03,0.53,0.99,1.12
11.736,-0.28,0.40,1.26,1.35
11.746,-0.37,0.13,1.30,1.35
11.756,0.36,0.17,1.20,1.26
11.766,1.07,0.29,1.36,1.76
11.776,1.15,0.48,1.46,1.93
11.786,0.95,0.85,1.50,1.97
11.796,0.94,1.18,1.74,2.31
11.806,1.37,1.16,2.36,2.97
11.817,2.08,0.95,2.99,3.76
11.826,2.67,0.81,3.06,4.14
11.837,3.00,1.16,2.89,4.33
11.847,3.12,2.44,2.30,4.58
11.857,2.72,3.90,1.65,5.03
11.867,1.81,4.60,1.19,5.09
11.877,0.50,4.58,0.77,4.67
11.887,-0.92,4.04,0.04,4.14
11.897,-2.11,3.07,-0.86,3.82
11.907,-2.91,2.15,-1.40,3.88
11.917,-3.37,1.45,-1.36,3.91
11.927,-3.26,0.75,-1.24,3.57
11.937,-2.71,-0.38,-1.19,2.98
11.947,-1.82,-1.34,-1.30,2.61
11.957,-0.90,-1.88,-1.75,2.72
11.967,-0.28,-1.90,-2.47,3.12
11.978,-0.07,-1.29,-2.82,3.11
11.987,-0.27,-0.50,-2.76,2.82
11.998,-0.98,0.24,-2.41,2.61
12.008,-1.91,0.80,-2.06,2.92
12.018,-2.49,1.08,-1.88,3.30
12.028,-2.71,1.13,-1.63,3.36
12.038,-2.79,0.93,-1.27,3.21
12.048,-2.66,0.34,-1.04,2.87
12.058,-2.22,-0.30,-0.86,2.40
12.068,-1.61,-0.72,-0.76,1.92
12.078,-0.83,-1.18,-1.03,1.77
12.088,-0.23,-1.54,-1.22,1.98
12.098,0.11,-1.62,-1.19,2.02
12.108,0.36,-1.63,-1.20,2.06
12.118,0.48,-1.72,-1.26,2.19
12.128,0.51,-1.75,-1.31,2.24
12.138,0.43,-1.72,-1.26,2.18
12.149,0.34,-1.59,-1.14,1.98
12.158,0.29,-1.49,-1.05,1.84
12.169,0.26,-1.30,-0.95,1.64
12.179,0.36,-0.89,-0.74,1.21
12.189,0.56,-0.44,-0.57,0.92
12.199,0.79,-0.18,-0.54,0.97
12.209,0.95,-0.17,-0.41,1.05
12.219,1.06,-0.33,-0.08,1.11
12.229,1.13,-0.50,0.20,1.25
12.239,1.14,-0.65,0.41,1.38
12.249,1.04,-0.80,0.57,1.43
12.259,0.86,-0.80,0.67,1.35
12.269,0.74,-0.88,0.68,1.33
12.279,0.47,-1.03,0.63,1.29
12.289,0.26,-1.18,0.57,1.34
12.299,0.23,-1.36,0.53,1.48
12.309,0.41,-1.48,0.62,1.65
12.319,0.73,-1.32,0.59,1.62
12.329,1.02,-0.87,0.29,1.37
12.339,1.24,-0.53,-0.00,1.35
12.349,1.32,-0.45,0.03,1.40
12.359,1.27,-0.37,0.46,1.40
12.370,1.19,0.01,0.97,1.54
12.380,1.03,0.43,1.34,1.74
12.390,0.92,0.57,1.73,2.04
12.400,1.07,0.41,2.03,2.33
12.410,1.36,0.12,2.01,2.43
12.420,1.62,-0.24,1.93,2.53
12.430,1.88,-0.49,1.87,2.70
12.440,2.08,-0.53,1.89,2.86
12.450,2.12,-0.30,1.82,2.81
12.460,1.96,0.24,1.68,2.59
12.470,1.72,1.06,1.46,2.49
12.480,1.57,1.98,0.93,2.69
12.490,1.57,2.86,0.63,3.32
12.500,1.23,3.47,0.78,3.77
12.510,0.61,3.60,0.62,3.70
12.520,0.33,3.62,0.34,3.65
12.531,0.33,3.81,-0.12,3.82
12.541,-0.04,3.92,-0.88,4.01
12.551,-0.57,3.58,-1.84,4.06
12.561,-1.35,2.92,-2.77,4.25
12.571,-2.19,1.96,-3.45,4.54
12.581,-2.87,0.62,-3.62,4.66
12.591,-3.21,-0.86,-3.21,4.62
12.601,-2.93,-1.99,-2.80,4.51
12.611,-2.06,-2.60,-2.54,4.18
12.621,-1.09,-2.48,-2.38,3.61
12.631,-0.40,-1.74,-1.91,2.62
12.641,-0.02,-0.60,-1.52,1.63
12.651,0.06,0.46,-1.15,1.25
12.661,-0.07,1.15,-0.94,1.48
12.671,-0.28,1.46,-0.88,1.73
12.681,-0.52,1.71,-0.69,1.92
12.691,-0.67,1.72,-0.56,1.93
12.701,-0.72,1.59,-0.44,1.80
12.712,-0.46,1.27,-0.48,1.43
12.722,-0.02,1.01,-0.52,1.13
12.732,-0.04,0.43,-0.54,0.69
12.742,-0.03,-0.35,-0.60,0.69
12.752,0.15,-0.76,-0.61,0.99
12.762,0.19,-0.90,-0.71,1.16
12.772,-0.11,-1.05,-0.78,1.31
12.782,-0.55,-1.20,-0.63,1.46
12.792,-0.77,-1.37,-0.36,1.62
12.802,-0.93,-1.70,-0.15,1.95
12.812,-1.10,-1.88,-0.08,2.18
12.822,-1.28,-1.80,-0.01,2.21
12.832,-1.34,-1.61,0.11,2.10
12.842,-1.24,-1.46,0.21,1.93
12.852,-1.01,-1.35,0.31,1.71
12.863,-0.70,-1.28,0.40,1.52
12.872,-0.41,-1.31,0.56,1.48
12.882,-0.20,-1.49,0.74,1.68
12.893,-0.04,-1.77,0.74,1.92
12.903,0.15,-2.04,0.51,2.11
12.913,0.33,-2.23,0.34,2.28
12.923,0.43,-2.35,0.47,2.44
12.933,0.58,-2.38,0.80,2.58
12.943,0.86,-2.36,1.27,2.81
12.953,1.19,-2.21,1.42,2.88
12.963,1.36,-1.80,1.25,2.58
12.973,1.25,-1.07,0.91,1.88
12.983,0.78,-0.35,0.78,1.15
12.993,0.24,0.09,0.59,0.64
13.003,0.11,0.37,0.78,0.87
13.013,0.24,0.35,1.31,1.38
13.023,0.51,0.37,1.35,1.49
13.033,0.88,0.73,1.13,1.60
13.043,1.22,1.05,1.08,1.94
13.053,1.27,1.40,1.21,2.24
13.064,1.07,1.56,1.45,2.38
13.074,0.96,1.32,1.73,2.38
13.084,1.23,0.88,2.30,2.75
13.094,1.74,0.92,2.54,3.21
13.104,2.25,1.88,2.23,3.68
13.114,2.30,3.39,1.54,4.38
13.124,1.82,5.08,0.81,5.45
13.134,0.88,6.39,0.34,6.46
13.144,-0.31,6.68,0.36,6.70
13.154,-1.15,6.07,0.50,6.19
13.164,-1.50,4.32,0.40,4.59
13.174,-1.78,1.97,0.11,2.66
13.184,-1.89,-0.00,0.53,1.96
13.194,-1.61,-1.23,1.09,2.30
13.204,-0.89,-1.97,1.15,2.45
13.214,-0.20,-2.39,0.80,2.53
13.224,0.12,-2.51,0.19,2.52
13.234,0.20,-2.50,-0.83,2.65
13.245,-0.00,-2.16,-2.07,3.00
13.255,-0.30,-1.59,-3.11,3.50
13.265,-0.67,-0.99,-3.40,3.60
13.275,-1.26,-0.28,-3.29,3.54
13.285,-1.97,0.24,-3.04,3.63
13.295,-2.35,0.52,-2.84,3.73
13.305,-2.33,0.54,-2.52,3.47
13.315,-2.00,0.36,-2.04,2.88
13.325,-1.64,-0.03,-1.57,2.27
13.335,-1.39,-0.58,-1.12,1.87
13.345,-1.05,-1.05,-0.64,1.61
13.355,-0.80,-1.31,-0.41,1.59
13.365,-0.53,-1.53,-0.51,1.70
13.375,-0.42,-1.63,-0.63,1.80
13.385,-0.54,-1.39,-0.73,1.66
13.395,-0.49,-1.02,-0.78,1.38
13.406,-0.32,-0.88,-0.84,1.26
13.416,-0.03,-0.87,-0.84,1.21
13.426,0.36,-0.84,-0.77,1.19
13.436,0.80,-0.73,-0.68,1.28
13.446,1.14,-0.65,-0.63,1.46
13.456,1.30,-0.56,-0.60,1.54
13.466,1.38,-0.59,-0.56,1.60
13.476,1.34,-0.62,-0.39,1.53
13.486,1.19,-0.56,-0.14,1.32
13.496,0.97,-0.57,0.14,1.14
13.506,0.75,-0.71,0.40,1.11
13.516,0.59,-0.83,0.57,1.17
13.526,0.58,-0.95,0.64,1.28
13.536,0.63,-1.11,0.72,1.47
13.546,0.65,-1.06,0.77,1.47
13.556,0.66,-0.92,0.76,1.36
13.566,0.81,-0.94,0.90,1.53
13.576,1.08,-1.12,1.10,1.91
13.586,1.26,-1.22,1.04,2.04
13.597,1.37,-1.15,0.86,1.99
13.607,1.54,-1.04,0.70,1.99
13.617,1.64,-0.88,0.52,1.93
13.627,1.63,-0.63,0.38,1.79
13.637,1.45,-0.34,0.47,1.56
13.647,1.25,0.10,0.50,1.35
13.657,0.93,0.46,0.45,1.13
13.667,0.55,0.46,0.72,1.02
13.677,0.42,0.35,1.13,1.26
13.687,0.59,0.26,1.62,1.75
13.697,1.06,0.38,1.92,2.22
13.707,1.48,0.57,2.07,2.60
13.717,1.82,0.45,2.25,2.93
13.727,1.97,0.08,2.42,3.12
13.737,1.81,-0.16,2.50,3.09
13.747,1.38,0.05,2.09,2.50
13.757,0.60,0.78,1.36,1.68
13.767,-0.06,1.71,1.03,2.00
13.777,-0.16,2.40,1.20,2.69
13.788,-0.55,3.04,0.91,3.22
13.798,-1.25,3.38,-0.06,3.60
13.808,-1.07,3.49,-1.35,3.89
13.818,-0.13,3.35,-2.78,4.35
13.828,-0.02,2.64,-4.02,4.81
13.838,-1.04,1.52,-4.65,5.00
13.848,-2.32,0.52,-4.81,5.36
13.858,-3.17,-0.16,-4.18,5.25
13.868,-3.23,-0.55,-2.92,4.38
13.878,-2.79,-0.16,-1.86,3.36
13.888,-1.96,0.53,-1.28,2.40
13.898,-1.18,1.09,-1.19,2.00
13.908,-0.33,1.37,-1.28,1.90
13.918,0.41,1.08,-1.36,1.78
13.928,0.70,0.70,-1.36,1.68
13.938,0.85,0.50,-1.11,1.48
13.949,0.83,0.56,-0.79,1.27
13.959,0.36,0.70,-0.66,1.03
13.969,-0.33,0.72,-0.74,1.08
13.979,-0.52,0.71,-0.70,1.12
13.989,-0.18,0.85,-0.52,1.02
13.999,-0.25,0.51,-0.58,0.81
14.009,-0.41,-0.16,-0.67,0.80
14.019,-0.45,-0.70,-0.56,1.00
14.029,-0.39,-0.99,-0.48,1.17
14.039,-0.42,-1.19,-0.36,1.31
14.049,-0.50,-1.55,-0.21,1.64
14.059,-0.51,-1.95,-0.06,2.02
14.069,-0.61,-2.09,0.11,2.18
14.079,-0.68,-2.09,0.19,2.20
14.089,-0.65,-1.94,0.21,2.06
14.099,-0.65,-1.79,0.19,1.91
14.109,-0.74,-1.61,0.15,1.77
14.119,-0.80,-1.51,0.20,1.73
14.130,-0.76,-1.51,0.37,1.73
14.140,-0.71,-1.53,0.54,1.77
14.150,-0.64,-1.54,0.60,1.77
14.160,-0.57,-1.57,0.58,1.77
14.170,-0.42,-1.61,0.54,1.75
14.180,-0.23,-1.72,0.67,1.86
14.190,0.04,-1.79,0.90,2.00
14.200,0.35,-1.80,1.06,2.12
14.210,0.63,-1.75,1.07,2.14
14.220,0.85,-1.65,0.97,2.09
14.230,0.83,-1.16,0.80,1.63
14.240,0.55,-0.52,0.82,1.11
14.250,0.19,-0.07,0.91,0.93
14.260,0.02,0.33,1.04,1.09
14.270,0.01,0.63,1.45,1.58
14.280,-0.01,0.83,1.26,1.51
14.290,0.26,0.87,1.12,1.44
14.300,0.67,0.89,1.05,1.53
14.310,0.81,0.89,1.29,1.77
14.321,0.56,0.87,1.47,1.80
14.331,0.40,0.66,1.77,1.93
14.341,0.94,0.24,2.30,2.49
14.351,2.00,0.07,2.76,3.41
14.361,2.94,0.36,2.88,4.13
14.371,3.27,1.12,2.49,4.26
14.381,3.17,2.54,1.86,4.47
14.391,2.69,4.27,1.29,5.21
14.401,1.91,5.52,1.12,5.95
14.411,0.59,5.79,0.96,5.90
14.421,-0.99,5.10,0.36,5.21
14.431,-2.20,3.86,-0.40,4.46
14.441,-2.71,2.60,-0.92,3.87
14.451,-2.76,1.72,-0.91,3.38
14.461,-2.63,0.70,-0.57,2.78
14.471,-2.12,-0.62,-0.24,2.22
14.482,-1.25,-1.74,-0.12,2.15
14.492,-0.36,-2.29,-0.46,2.36
14.501,0.07,-2.37,-1.24,2.67
14.512,0.24,-2.21,-2.14,3.09
14.522,0.31,-1.97,-2.67,3.33
14.532,-0.06,-1.49,-2.82,3.19
14.542,-0.90,-0.68,-2.72,2.94
14.552,-1.78,0.19,-2.51,3.08
14.562,-2.36,0.81,-2.36,3.43
14.572,-2.59,0.99,-2.07,3.46
14.582,-2.48,0.72,-1.71,3.10
14.592,-2.18,0.06,-1.45,2.62
14.602,-2.02,-0.48,-1.16,2.38
14.612,-1.68,-0.99,-1.04,2.22
14.622,-1.08,-1.46,-0.93,2.04
14.632,-0.69,-1.51,-0.88,1.88
14.642,-0.45,-1.20,-0.89,1.56
14.652,-0.16,-0.90,-0.98,1.34
14.663,0.02,-0.85,-1.13,1.41
14.673,0.18,-1.00,-1.08,1.49
14.683,0.36,-1.14,-1.01,1.56
14.693,0.54,-1.16,-1.07,1.67
14.703,0.60,-1.03,-0.97,1.53
14.713,0.65,-0.80,-0.75,1.28
14.723,0.77,-0.56,-0.70,1.18
14.733,0.84,-0.32,-0.77,1.18
14.743,0.87,-0.11,-0.64,1.09
14.753,0.89,-0.04,-0.36,0.96
14.763,0.86,-0.19,-0.08,0.88
14.773,0.81,-0.49,0.24,0.98
14.783,0.77,-0.77,0.61,1.24
14.793,0.77,-1.11,0.80,1.57
14.803,0.79,-1.40,0.95,1.87
14.813,0.86,-1.68,1.09,2.18
14.823,1.00,-1.79,1.27,2.42
14.833,1.21,-1.64,1.38,2.45
14.843,1.34,-1.24,1.38,2.29
14.854,1.47,-0.79,1.26,2.10
14.864,1.64,-0.38,1.18,2.05
14.874,1.65,-0.12,1.11,1.99
14.884,1.48,-0.15,0.88,1.73
14.894,1.39,-0.37,0.66,1.58
14.904,1.29,-0.52,0.41,1.45
14.914,1.17,-0.44,0.27,1.28
14.924,0.99,-0.19,0.31,1.05
14.934,0.75,-0.10,0.65,1.00
14.944,0.54,-0.08,1.33,1.44
14.954,0.49,-0.00,1.91,1.98
14.964,0.66,0.00,2.35,2.45
14.974,0.91,-0.07,2.48,2.64
14.984,1.13,-0.09,2.30,2.57
14.994,1.28,-0.10,2.08,2.45
15.004,1.27,0.06,1.91,2.30
15.015,0.93,0.64,1.61,1.97
15.025,0.38,1.58,1.18,2.01
15.035,0.33,2.30,1.20,2.62
15.045,0.68,2.78,1.72,3.34
15.055,0.61,3.13,1.49,3.52
15.065,0.13,3.25,0.39,3.27
15.075,-0.06,3.29,-0.64,3.36
15.085,0.25,3.11,-1.72,3.56
15.095,0.37,2.53,-3.07,4.00
15.105,-0.29,1.54,-3.94,4.23
15.115,-1.71,0.38,-4.25,4.60
15.125,-2.88,-0.67,-3.98,4.96
15.135,-3.20,-1.31,-3.24,4.74
15.145,-2.89,-1.26,-2.32,3.92
15.155,-1.97,-0.59,-1.92,2.81
15.165,-0.97,0.31,-1.82,2.09
15.175,-0.04,0.96,-1.68,1.94
15.185,0.71,1.29,-1.42,2.04
15.195,1.05,1.40,-1.21,2.12
15.205,1.12,1.53,-1.11,2.20
15.216,0.90,1.81,-0.93,2.22
15.226,0.40,2.04,-0.87,2.25
15.236,-0.38,2.11,-0.72,2.26
15.246,-0.84,1.96,-0.62,2.22
15.256,-0.71,1.84,-0.50,2.04
15.266,-0.60,1.31,-0.43,1.50
15.276,-0.52,0.15,-0.46,0.71
15.286,-0.21,-0.77,-0.37,0.88
15.296,0.26,-1.44,-0.37,1.51
15.306,0.53,-2.04,-0.40,2.15
15.316,0.54,-2.42,-0.46,2.52
15.326,0.25,-2.60,-0.60,2.68
15.336,-0.08,-2.73,-0.66,2.81
15.346,-0.51,-2.65,-0.55,2.75
15.356,-0.97,-2.45,-0.38,2.67
15.366,-1.28,-2.15,-0.21,2.51
15.377,-1.51,-1.76,-0.09,2.32
15.386,-1.67,-1.33,0.08,2.14
15.397,-1.73,-0.97,0.25,2.00
15.407,-1.68,-0.79,0.33,1.88
15.417,-1.41,-0.82,0.37,1.67
15.427,-1.02,-0.98,0.29,1.44
15.437,-0.65,-1.11,0.19,1.30
15.447,-0.35,-1.35,0.14,1.40
15.457,-0.05,-1.83,0.31,1.86
15.467,0.36,-2.37,0.51,2.45
15.477,0.77,-2.72,0.62,2.90
15.487,1.12,-2.71,0.77,3.03
15.497,1.38,-2.42,1.03,2.97
15.507,1.53,-1.96,1.35,2.83
15.517,1.40,-1.15,1.11,2.13
15.527,1.07,-0.39,1.17,1.63
15.537,0.64,0.23,1.11,1.30
15.547,0.22,0.61,1.29,1.45
15.558,-0.25,0.74,1.42,1.62
15.568,-0.47,0.89,1.55,1.85
15.578,-0.09,1.07,1.38,1.75
15.588,0.72,1.07,1.56,2.03
15.598,1.21,1.09,1.50,2.21
15.608,1.19,1.04,1.46,2.15
15.618,1.28,0.78,1.93,2.45
15.628,1.80,0.51,2.68,3.27
15.638,2.52,0.36,3.26,4.13
15.648,3.09,0.62,3.35,4.60
15.658,3.35,1.67,2.87,4.71
15.668,3.13,3.55,1.95,5.12
15.678,2.32,5.19,1.67,5.92
15.688,1.18,5.65,1.44,5.95
15.698,-0.46,4.82,0.87,4.92
15.708,-1.68,3.31,-0.16,3.72
15.718,-2.33,2.35,-1.13,3.49
15.728,-3.07,2.28,-1.27,4.03
15.739,-3.43,2.11,-0.84,4.12
15.749,-3.07,1.32,-0.57,3.39
15.759,-2.16,0.12,-0.53,2.23
15.769,-1.05,-0.86,-0.92,1.64
15.779,-0.24,-1.75,-1.60,2.39
15.789,0.26,-2.24,-2.46,3.34
15.799,0.63,-2.27,-2.96,3.78
15.809,0.71,-2.14,-2.83,3.61
15.819,0.24,-1.68,-2.49,3.01
15.829,-0.66,-0.75,-2.14,2.36
15.839,-1.55,0.17,-1.86,2.43
15.849,-2.09,0.75,-1.55,2.71
15.859,-2.24,0.87,-1.21,2.69
15.869,-2.07,0.47,-1.02,2.36
15.879,-1.71,-0.21,-0.97,1.98
15.889,-1.31,-0.66,-0.94,1.74
15.900,-0.84,-1.00,-0.87,1.57
15.909,-0.41,-1.35,-0.74,1.60
15.920,-0.15,-1.65,-0.75,1.82
15.929,0.08,-1.67,-0.84,1.87
15.940,0.21,-1.52,-1.02,1.84
15.950,0.24,-1.33,-1.16,1.78
15.960,0.18,-1.14,-1.17,1.64
15.970,0.21,-1.06,-1.09,1.53
15.980,0.29,-1.02,-0.88,1.38
15.990,0.34,-0.98,-0.66,1.23
16.000,0.37,-1.01,-0.45,1.16
16.010,0.46,-0.93,-0.29,1.07
16.020,0.60,-0.77,-0.21,1.00
16.030,0.79,-0.59,-0.30,1.03
16.040,0.92,-0.46,-0.31,1.07
16.050,1.03,-0.45,-0.11,1.13
16.060,1.13,-0.43,0.20,1.23
16.070,1.21,-0.49,0.50,1.40
16.080,1.20,-0.72,0.68,1.56
16.091,1.12,-1.03,0.78,1.71
16.101,0.97,-1.38,0.84,1.88
16.111,0.96,-1.61,0.92,2.09
16.121,1.08,-1.69,1.00,2.25
16.131,1.22,-1.59,1.08,2.27
16.141,1.30,-1.31,1.03,2.11
16.151,1.47,-0.81,0.73,1.83
16.161,1.68,-0.20,0.39,1.73
16.171,1.69,0.21,0.33,1.73
16.181,1.53,0.45,0.43,1.65
16.191,1.32,0.67,0.47,1.55
16.201,1.22,0.79,0.46,1.53
16.211,1.02,0.90,0.86,1.61
16.221,0.95,1.00,1.20,1.83
16.231,1.19,0.80,1.49,2.07
16.241,1.48,0.41,1.74,2.33
16.251,1.56,0.11,2.12,2.63
16.261,1.46,0.02,2.31,2.73
16.271,1.07,0.25,2.03,2.31
16.282,0.25,0.82,1.53,1.75
16.292,-0.22,1.54,1.36,2.06
16.302,-0.14,2.21,1.66,2.77
16.312,-0.39,2.77,1.49,3.17
16.322,-0.76,3.11,0.64,3.26
16.332,-0.67,3.61,-0.48,3.70
16.342,-0.24,4.05,-1.96,4.51
16.352,-0.18,3.85,-3.54,5.24
16.362,-1.08,3.05,-4.49,5.53
16.372,-2.42,2.02,-4.64,5.61
16.382,-3.32,0.74,-4.02,5.26
16.392,-3.68,-0.50,-3.13,4.85
16.402,-3.27,-1.41,-2.50,4.35
16.412,-2.39,-1.82,-2.24,3.75
16.422,-1.58,-1.37,-1.94,2.85
16.432,-0.57,-0.52,-1.56,1.74
16.443,0.26,-0.03,-0.99,1.02
16.453,0.84,0.41,-0.79,1.22
16.463,1.06,0.76,-0.90,1.59
16.473,0.96,1.04,-0.80,1.62
16.483,0.63,1.12,-0.61,1.42
16.493,-0.01,1.08,-0.58,1.22
16.503,-0.52,0.91,-0.57,1.19
16.513,-0.81,0.74,-0.46,1.19
16.523,-0.70,0.74,-0.23,1.05
16.533,-0.52,0.34,-0.14,0.63
16.543,-0.44,-0.45,-0.05,0.63
16.553,-0.16,-1.11,-0.01,1.12
16.563,0.17,-1.34,-0.15,1.36
16.573,0.26,-1.53,-0.34,1.59
16.583,0.11,-1.53,-0.36,1.57
16.593,-0.13,-1.60,-0.21,1.62
16.603,-0.35,-1.65,-0.24,1.70
16.613,-0.71,-1.55,-0.27,1.72
16.623,-1.05,-1.34,0.04,1.71
16.633,-1.26,-1.21,0.34,1.78
16.644,-1.27,-1.15,0.45,1.77
16.654,-1.08,-1.10,0.59,1.65
16.664,-0.89,-1.21,0.77,1.69
16.674,-0.72,-1.42,0.82,1.79
16.684,-0.46,-1.69,0.63,1.86
16.694,-0.23,-1.96,0.54,2.05
16.704,0.00,-2.07,0.60,2.16
16.714,0.05,-2.06,0.67,2.17
16.724,-0.08,-2.17,0.96,2.38
16.734,-0.08,-2.31,0.99,2.51
16.744,0.17,-2.28,0.83,2.43
16.754,0.43,-2.17,0.83,2.36
16.764,0.45,-1.94,0.85,2.17
16.774,0.31,-1.46,0.70,1.65
16.784,0.19,-0.80,0.53,0.97
16.794,0.29,0.09,0.82,0.87
16.805,0.54,0.71,1.26,1.54
16.815,0.66,1.09,1.27,1.80
16.825,0.92,1.42,1.27,2.11
16.835,1.03,1.56,0.93,2.09
16.845,0.68,1.62,0.91,1.98
16.855,0.26,1.64,1.05,1.96
16.865,0.30,1.36,1.52,2.06
16.875,0.86,0.90,2.11,2.45
16.885,1.64,0.69,2.58,3.14
16.895,2.31,0.76,3.10,3.94
16.905,2.64,1.37,3.31,4.45
16.915,2.55,2.79,2.90,4.77
16.925,1.98,4.25,2.21,5.19
16.935,1.20,5.24,1.71,5.64
16.945,0.13,5.16,1.68,5.43
16.955,-1.05,3.89,0.97,4.14
16.965,-1.68,2.65,0.02,3.14
16.975,-1.92,1.94,-0.55,2.79
16.986,-1.99,1.41,-0.74,2.55
16.996,-1.90,0.75,-0.72,2.16
17.006,-1.57,0.02,-0.72,1.73
17.016,-1.06,-0.64,-0.95,1.56
17.026,-0.36,-1.42,-1.54,2.12
17.036,0.10,-2.04,-2.22,3.02
17.046,0.19,-2.20,-2.81,3.58
17.056,0.20,-2.14,-3.10,3.77
17.066,-0.01,-1.87,-2.92,3.47
17.076,-0.65,-1.24,-2.50,2.87
17.086,-1.27,-0.44,-2.13,2.52
17.096,-1.59,0.14,-1.87,2.46
17.106,-1.60,0.33,-1.63,2.31
17.116,-1.51,0.48,-1.37,2.10
17.126,-1.34,0.33,-1.19,1.82
17.136,-1.17,0.10,-1.09,1.60
17.146,-0.89,-0.19,-0.88,1.26
17.156,-0.58,-0.63,-0.73,1.12
17.167,-0.14,-1.04,-0.77,1.30
17.177,0.24,-1.31,-0.88,1.59
17.187,0.33,-1.47,-0.93,1.77
17.197,0.29,-1.57,-0.91,1.84
17.207,0.29,-1.56,-0.81,1.78
17.217,0.28,-1.56,-0.70,1.73
17.227,0.23,-1.56,-0.58,1.68
17.237,0.24,-1.43,-0.53,1.54
17.247,0.33,-1.15,-0.66,1.37
17.257,0.43,-0.85,-0.72,1.19
17.267,0.59,-0.53,-0.63,1.01
17.277,0.80,-0.21,-0.55,0.99
17.287,0.98,-0.04,-0.47,1.09
17.297,1.04,0.03,-0.35,1.10
17.307,1.08,-0.07,-0.23,1.11
17.318,1.03,-0.31,0.01,1.07
17.327,1.06,-0.47,0.28,1.19
17.337,1.20,-0.61,0.57,1.46
17.348,1.31,-0.77,0.76,1.70
17.358,1.41,-0.94,0.81,1.88
17.368,1.47,-1.16,0.82,2.04
17.378,1.42,-1.27,0.74,2.04
17.388,1.33,-1.21,0.73,1.94
17.398,1.29,-1.09,0.73,1.84
17.408,1.31,-0.89,0.61,1.70
17.418,1.32,-0.70,0.49,1.57
17.428,1.25,-0.57,0.42,1.44
17.438,1.14,-0.33,0.47,1.27
17.448,0.92,0.08,0.56,1.08
17.458,0.75,0.44,0.79,1.18
17.468,0.77,0.55,0.99,1.37
17.478,0.84,0.32,1.30,1.58
17.488,1.07,0.21,1.52,1.87
17.498,1.37,0.33,1.78,2.27
17.508,1.68,0.38,2.00,2.64
17.519,1.96,0.38,2.02,2.84
17.529,2.11,0.44,1.89,2.86
17.539,1.94,0.66,1.67,2.65
17.549,1.24,1.13,1.33,2.14
17.559,0.70,1.67,1.25,2.20
17.569,0.75,2.11,1.47,2.68
17.579,0.35,2.60,1.22,2.90
17.589,-0.23,2.93,0.45,2.98
17.599,-0.31,3.29,-0.53,3.35
17.609,-0.29,3.71,-1.89,4.17
17.619,-0.68,3.56,-3.37,4.95
17.629,-1.83,2.69,-4.33,5.42
17.639,-3.29,1.79,-4.61,5.94
17.649,-4.24,0.80,-4.25,6.05
17.659,-4.39,-0.24,-3.21,5.45
17.669,-3.82,-0.94,-2.42,4.61
17.679,-2.86,-1.01,-2.02,3.64
17.689,-1.71,-0.56,-1.66,2.45
17.700,-0.51,-0.32,-1.32,1.45
17.710,0.42,0.01,-0.98,1.07
17.720,1.17,0.36,-0.69,1.40
17.730,1.48,0.52,-0.56,1.66
17.740,1.40,0.69,-0.55,1.66
17.750,1.08,1.10,-0.40,1.59
17.760,0.49,1.38,-0.36,1.51
17.770,-0.35,1.33,-0.39,1.43
17.780,-1.16,1.11,-0.38,1.65
17.790,-1.46,0.72,-0.26,1.65
17.800,-0.90,0.70,-0.27,1.17
17.810,-0.75,0.35,-0.63,1.04
17.820,-0.73,-0.43,-0.82,1.18
17.830,-0.45,-0.96,-0.79,1.32
17.840,-0.23,-1.21,-0.75,1.44
17.850,-0.18,-1.43,-0.69,1.60
17.860,-0.28,-1.50,-0.43,1.59
17.871,-0.53,-1.72,-0.10,1.80
17.881,-0.65,-1.89,0.02,2.00
17.891,-0.70,-1.90,-0.02,2.03
17.901,-0.76,-1.75,-0.00,1.91
17.911,-0.72,-1.46,0.11,1.64
17.921,-0.70,-1.26,0.26,1.46
17.931,-0.75,-1.20,0.49,1.49
17.941,-0.72,-1.26,0.65,1.59
17.951,-0.57,-1.36,0.61,1.59
17.961,-0.44,-1.44,0.38,1.55
17.971,-0.46,-1.55,0.28,1.64
17.981,-0.57,-1.72,0.37,1.85
17.991,-0.60,-1.97,0.48,2.11
18.001,-0.41,-2.11,0.56,2.22
18.011,-0.01,-2.12,0.71,2.24
18.021,0.45,-2.07,0.91,2.31
18.031,0.71,-1.92,1.17,2.35
18.041,0.77,-1.51,1.20,2.08
18.052,0.70,-0.99,1.08,1.62
18.062,0.57,-0.43,1.15,1.36
18.072,0.56,-0.07,1.64,1.73
18.082,0.67,0.09,1.75,1.88
18.092,0.71,0.40,1.31,1.54
18.102,0.82,0.57,0.88,1.34
18.112,0.88,0.77,0.60,1.31
18.122,0.51,1.16,0.69,1.44
18.132,-0.19,1.40,1.09,1.78
18.142,-0.36,1.09,2.05,2.35
18.152,0.59,0.60,2.93,3.05
18.162,1.93,0.66,2.89,3.54
18.172,2.78,1.36,2.43,3.94
18.182,2.99,2.61,1.88,4.39
18.192,2.65,3.84,1.35,4.86
18.202,2.12,4.89,1.06,5.43
18.212,1.26,5.83,0.72,6.01
18.222,-0.06,6.26,0.16,6.26
18.233,-1.50,5.52,-0.32,5.73
18.243,-2.30,3.84,-0.31,4.49
18.253,-2.29,1.91,-0.08,2.98
18.263,-1.98,0.22,0.42,2.04
18.273,-1.41,-1.26,0.65,2.00
18.283,-0.66,-2.38,0.33,2.49
18.293,-0.07,-2.77,-0.24,2.78
18.303,0.07,-2.52,-1.01,2.71
18.313,-0.18,-2.02,-1.95,2.81
18.323,-0.66,-1.45,-3.06,3.46
18.333,-1.28,-0.77,-3.63,3.92
18.343,-2.05,-0.08,-3.66,4.19
18.353,-2.80,0.43,-3.43,4.45
18.363,-3.25,0.79,-3.07,4.54
18.373,-3.04,1.02,-2.51,4.08
18.383,-2.51,0.91,-1.94,3.30
18.393,-1.96,0.33,-1.53,2.50
18.404,-1.44,-0.55,-1.23,1.97
18.414,-0.99,-1.26,-0.91,1.84
18.424,-0.64,-1.38,-0.72,1.68
18.434,-0.04,-1.41,-0.70,1.58
18.444,0.34,-1.27,-0.67,1.48
18.454,0.45,-0.82,-0.62,1.12
18.464,0.62,-0.60,-0.71,1.12
18.474,0.76,-0.71,-0.89,1.37
18.484,0.85,-0.86,-0.94,1.53
18.494,0.96,-0.93,-0.95,1.63
18.504,1.04,-0.95,-0.93,1.69
18.514,1.00,-0.95,-0.69,1.54
18.524,0.90,-1.09,-0.26,1.44
18.534,0.78,-1.19,-0.11,1.43
18.544,0.67,-1.12,-0.23,1.33
18.554,0.59,-0.93,-0.32,1.14
18.564,0.50,-0.75,-0.26,0.94
18.574,0.40,-0.63,-0.08,0.75
18.584,0.39,-0.67,0.14,0.79
18.595,0.41,-0.73,0.20,0.86
18.605,0.48,-0.76,0.27,0.94
18.615,0.63,-0.67,0.33,0.98
18.625,0.79,-0.72,0.36,1.13
18.635,0.91,-0.78,0.48,1.29
18.645,0.98,-0.84,0.56,1.41
18.655,1.00,-0.85,0.53,1.42
18.665,1.01,-0.83,0.45,1.38
18.675,1.10,-0.77,0.50,1.43
18.685,1.12,-0.65,0.58,1.42
18.695,1.15,-0.53,0.68,1.43
18.705,1.20,-0.37,0.67,1.43
18.715,1.26,-0.26,0.60,1.42
18.725,1.33,-0.26,0.56,1.47
18.735,1.28,-0.24,0.56,1.42
18.745,1.06,-0.21,0.68,1.28
18.756,0.93,-0.17,0.92,1.32
18.766,1.03,-0.06,1.23,1.61
18.776,1.23,0.20,1.37,1.85
18.786,1.49,0.34,1.40,2.07
18.796,1.65,0.45,1.45,2.24
18.806,1.82,0.47,1.55,2.44
18.816,1.89,0.38,1.57,2.48
18.826,1.77,0.29,1.56,2.37
18.836,1.38,0.48,1.41,2.03
18.846,0.73,1.07,1.21,1.77
18.856,0.32,1.65,1.36,2.16
18.866,0.57,2.00,1.91,2.83
18.876,0.82,2.38,1.82,3.11
18.886,0.66,2.64,0.82,2.84
18.896,0.55,2.73,-0.37,2.81
18.906,0.69,2.84,-1.42,3.25
18.916,0.58,2.64,-2.50,3.69
18.926,-0.29,1.83,-3.33,3.82
18.937,-1.89,1.01,-3.96,4.51
18.947,-3.39,0.34,-4.31,5.49
18.956,-4.31,-0.48,-3.81,5.77
18.967,-4.60,-0.99,-2.71,5.43
18.977,-4.27,-0.88,-1.83,4.73
18.987,-3.20,-0.48,-1.43,3.54
18.997,-1.98,-0.02,-1.27,2.35
19.007,-0.79,0.60,-1.08,1.46
19.017,0.33,0.96,-0.87,1.33
19.027,0.99,1.08,-0.90,1.71
19.037,1.20,1.26,-0.90,1.96
19.047,1.16,1.63,-0.63,2.10
19.057,0.74,2.02,-0.35,2.18
19.067,0.04,2.03,-0.24,2.05
19.077,-0.51,1.79,-0.20,1.87
19.088,-0.49,1.74,-0.17,1.82
19.097,-0.47,1.35,-0.20,1.45
19.108,-0.65,0.41,-0.29,0.82
19.118,-0.62,-0.34,-0.30,0.77
19.128,-0.50,-1.01,-0.31,1.17
19.138,-0.47,-1.66,-0.38,1.77
19.148,-0.42,-2.30,-0.47,2.38
19.158,-0.40,-2.68,-0.48,2.76
19.168,-0.46,-2.84,-0.31,2.89
19.178,-0.57,-2.83,-0.10,2.88
19.188,-0.69,-2.52,0.10,2.62
19.198,-0.73,-2.15,0.31,2.29
19.208,-0.75,-1.83,0.41,2.02
19.218,-0.74,-1.53,0.48,1.76
19.228,-0.71,-1.25,0.54,1.53
19.238,-0.66,-1.08,0.51,1.36
19.248,-0.68,-0.97,0.46,1.28
19.258,-0.61,-1.04,0.51,1.31
19.268,-0.42,-1.22,0.44,1.36
19.278,-0.19,-1.36,0.36,1.42
19.288,0.06,-1.43,0.62,1.56
19.298,0.34,-1.47,1.00,1.80
19.309,0.65,-1.44,1.13,1.94
19.319,0.90,-1.34,1.16,1.99
19.329,0.94,-1.22,1.21,1.95
19.339,0.86,-0.92,1.17,1.72
19.349,0.61,-0.49,1.20,1.44
19.359,0.22,-0.23,1.40,1.43
19.369,0.02,-0.12,1.51,1.51
19.379,0.03,-0.19,1.68,1.69
19.389,0.06,-0.10,1.47,1.47
19.399,0.21,0.08,1.22,1.24
19.409,0.36,0.25,0.86,0.97
19.419,0.31,0.60,0.79,1.04
19.429,-0.10,0.93,0.84,1.25
19.439,-0.46,1.02,1.25,1.68
19.449,-0.25,0.96,1.98,2.21
19.459,0.46,1.13,2.28,2.59
19.469,1.06,2.04,1.98,3.03
19.480,1.26,3.34,1.37,3.82
19.490,1.15,4.46,1.13,4.75
19.500,0.86,5.32,1.24,5.53
19.510,0.31,5.66,0.99,5.75
19.520,-0.39,5.19,0.39,5.22
19.530,-1.11,3.98,-0.15,4.14
19.540,-1.51,2.48,-0.24,2.91
19.550,-1.56,0.96,0.24,1.85
19.560,-1.41,-0.49,0.59,1.60
19.570,-1.06,-1.67,0.53,2.05
19.580,-0.55,-2.47,0.19,2.53
19.590,0.27,-2.92,-0.37,2.96
19.600,0.99,-2.88,-1.06,3.23
19.610,1.09,-2.36,-2.00,3.28
19.620,0.92,-1.66,-2.86,3.43
19.630,0.63,-0.85,-3.17,3.34
19.640,-0.06,0.08,-3.05,3.05
19.651,-1.14,0.83,-2.91,3.24
19.661,-1.96,1.40,-2.62,3.56
19.671,-2.24,1.76,-2.24,3.62
19.681,-2.19,1.60,-1.81,3.27
19.691,-2.03,1.00,-1.43,2.67
19.701,-1.61,0.27,-1.10,1.97
19.711,-1.15,-0.44,-0.81,1.47
19.721,-0.69,-0.97,-0.60,1.33
19.731,-0.30,-1.32,-0.56,1.46
19.741,-0.16,-1.51,-0.72,1.68
19.751,-0.19,-1.61,-0.88,1.85
19.761,-0.23,-1.70,-0.99,1.98
19.771,-0.21,-1.65,-1.12,2.01
19.781,-0.03,-1.56,-1.27,2.01
19.791,0.18,-1.46,-1.25,1.93
19.801,0.46,-1.15,-1.09,1.65
19.811,0.58,-0.65,-0.98,1.31
19.821,0.52,-0.14,-0.91,1.05
19.831,0.45,0.13,-0.77,0.90
19.842,0.53,0.26,-0.51,0.78
19.852,0.64,0.17,-0.19,0.69
19.862,0.75,-0.10,0.10,0.77
19.872,0.84,-0.42,0.32,0.99
19.882,0.85,-0.56,0.40,1.09
19.892,0.95,-0.68,0.48,1.26
19.902,0.91,-0.88,0.69,1.44
19.912,0.97,-1.04,1.00,1.74
19.922,1.18,-1.26,1.19,2.09
19.932,1.36,-1.45,1.15,2.29
19.942,1.42,-1.48,0.96,2.27
19.952,1.40,-1.35,0.79,2.10
19.962,1.43,-1.17,0.70,1.98
19.972,1.42,-0.91,0.43,1.74
19.982,1.33,-0.55,0.02,1.44
19.992,1.21,-0.26,-0.12,1.25
20.002,1.05,-0.09,-0.01,1.05
20.012,0.89,0.05,0.24,0.92
20.023,0.71,0.05,0.52,0.88
20.033,0.63,0.03,0.79,1.01
20.043,0.70,-0.09,1.16,1.36
20.053,0.90,-0.22,1.38,1.66
20.063,1.12,-0.28,1.43,1.84
20.073,1.29,-0.26,1.34,1.88
20.083,1.43,-0.24,1.18,1.87
20.093,1.41,-0.21,1.06,1.78
20.103,1.18,-0.16,1.08,1.61
20.113,0.76,0.03,1.16,1.39
20.123,0.25,0.42,1.11,1.21
20.133,-0.40,1.12,0.95,1.52
20.143,-0.48,1.65,1.20,2.09
20.153,0.12,2.17,1.72,2.77
20.163,0.12,2.74,1.44,3.09
20.173,-0.15,2.95,0.43,2.99
20.184,0.26,3.01,-0.65,3.09
20.194,0.81,2.87,-1.60,3.39
20.204,0.64,2.43,-2.48,3.53
20.214,-0.43,1.90,-3.32,3.85
20.224,-1.78,1.56,-3.96,4.61
20.234,-3.00,1.03,-4.30,5.34
20.244,-3.97,0.12,-4.08,5.69
20.254,-4.23,-0.91,-3.13,5.34
20.264,-3.68,-1.53,-2.29,4.60
20.274,-2.40,-1.52,-1.86,3.40
20.284,-1.07,-1.12,-1.49,2.15
20.294,0.02,-0.51,-1.13,1.24
20.304,0.81,0.19,-0.82,1.17
20.314,1.20,0.86,-0.66,1.62
20.324,1.18,1.48,-0.65,2.00
20.334,0.84,2.02,-0.64,2.28
20.344,0.42,2.29,-0.48,2.38
20.354,-0.13,2.19,-0.30,2.21
20.365,-0.55,1.72,-0.22,1.82
20.374,-0.59,1.33,-0.24,1.48
20.385,-0.33,1.34,-0.18,1.40
20.395,-0.24,1.09,-0.30,1.16
20.405,-0.20,0.59,-0.59,0.86
20.415,-0.16,0.20,-0.80,0.84
20.425,-0.31,-0.20,-0.90,0.98
20.435,-0.55,-0.56,-0.88,1.18
20.445,-0.76,-0.81,-0.79,1.36
20.455,-0.93,-1.06,-0.66,1.56
20.465,-1.05,-1.24,-0.40,1.67
20.475,-1.17,-1.25,0.10,1.72
20.485,-1.14,-1.32,0.42,1.80
20.495,-0.96,-1.39,0.27,1.71
20.505,-0.75,-1.41,0.10,1.61
20.515,-0.59,-1.39,-0.03,1.51
20.525,-0.50,-1.48,-0.09,1.56
20.536,-0.46,-1.75,-0.13,1.81
20.546,-0.46,-2.06,-0.23,2.13
20.556,-0.46,-2.29,-0.32,2.36
20.566,-0.53,-2.41,-0.26,2.48
20.576,-0.64,-2.28,0.05,2.37
20.586,-0.66,-1.96,0.51,2.13
20.596,-0.48,-1.58,0.86,1.86
20.606,-0.16,-1.27,0.97,1.60
20.616,0.13,-1.05,0.90,1.39
20.626,0.30,-0.82,0.80,1.19
20.636,0.26,-0.49,0.47,0.73
20.646,0.06,0.02,-0.05,0.08
20.656,-0.05,0.49,-0.21,0.54
20.666,0.12,0.84,-0.18,0.86
20.676,0.14,1.06,0.29,1.11
20.686,0.05,1.05,0.79,1.31
20.696,-0.05,0.84,1.00,1.31
20.706,-0.08,0.60,1.10,1.25
20.716,-0.05,0.52,0.84,0.99
20.727,0.24,0.51,0.65,0.86
20.737,0.83,0.43,0.82,1.25
20.747,1.48,0.25,1.04,1.82
20.757,2.04,0.28,1.08,2.32
20.767,2.34,0.82,0.86,2.62
20.777,2.33,1.71,0.59,2.95
20.787,2.04,2.76,0.37,3.45
20.797,1.17,3.79,-0.15,3.97
20.807,-0.11,4.81,-0.72,4.86
20.817,-1.03,5.77,-0.59,5.89
20.827,-1.50,5.91,-0.25,6.10
20.837,-1.69,4.59,-0.20,4.89
20.847,-1.80,2.04,-0.18,2.73
20.857,-1.65,-0.43,-0.04,1.70
20.867,-1.07,-2.21,0.06,2.46
20.877,-0.41,-3.30,0.09,3.32
20.887,-0.02,-3.77,0.30,3.78
20.898,0.14,-3.59,0.21,3.59
20.908,0.14,-2.94,-0.18,2.95
20.918,-0.13,-2.17,-1.04,2.41
20.928,-0.53,-1.43,-1.91,2.44
20.938,-0.79,-0.78,-2.57,2.80
20.948,-0.96,-0.08,-3.00,3.15
20.958,-1.20,0.58,-3.13,3.40
20.968,-1.50,1.07,-2.96,3.49
20.978,-1.61,1.39,-2.65,3.40
20.988,-1.51,1.42,-2.20,3.02
20.998,-1.26,1.13,-1.86,2.51
21.008,-0.95,0.77,-1.73,2.11
21.018,-0.72,0.45,-1.52,1.74
21.028,-0.57,0.27,-1.26,1.41
21.038,-0.49,0.21,-1.04,1.17
21.048,-0.55,0.23,-0.85,1.04
21.058,-0.53,0.32,-0.63,0.88
21.069,-0.47,0.26,-0.56,0.77
21.079,-0.40,-0.09,-0.65,0.77
21.089,-0.20,-0.44,-0.68,0.83
21.099,-0.05,-0.69,-0.78,1.04
21.109,0.11,-0.71,-0.88,1.14
21.119,0.28,-0.54,-0.99,1.16
21.129,0.34,-0.41,-0.95,1.09
21.139,0.35,-0.33,-0.82,0.95
21.149,0.42,-0.25,-0.87,0.99
21.159,0.50,-0.11,-0.93,1.06
21.169,0.49,0.07,-0.92,1.05
21.179,0.39,0.17,-0.84,0.95
21.189,0.31,0.27,-0.77,0.87
21.199,0.18,0.34,-0.94,1.02
21.209,-0.05,0.20,-1.09,1.11
21.219,-0.21,0.05,-1.03,1.05
21.229,-0.39,-0.13,-0.99,1.08
21.239,-0.50,-0.24,-1.11,1.24
21.249,-0.61,-0.26,-1.12,1.31
21.260,-0.71,-0.09,-1.03,1.25
21.270,-0.74,0.15,-1.01,1.26
21.280,-0.75,0.43,-1.12,1.42
21.290,-0.72,0.61,-1.12,1.47
21.300,-0.61,0.71,-0.94,1.33
21.310,-0.51,0.59,-0.74,1.08
21.320,-0.23,0.49,-0.51,0.74
21.330,0.06,0.27,-0.40,0.48
21.340,0.38,0.03,-0.30,0.49
21.350,0.67,-0.10,-0.27,0.73
21.360,0.86,-0.20,-0.24,0.91
21.370,0.85,-0.25,-0.21,0.91
21.380,0.86,-0.08,-0.24,0.89
21.390,0.88,0.12,-0.25,0.92
21.400,0.83,0.22,-0.34,0.93
21.410,0.82,0.24,-0.40,0.94
21.421,0.57,0.15,-0.50,0.77
21.431,0.24,0.17,-0.64,0.70
21.440,0.02,0.31,-0.55,0.63
21.451,-0.18,0.45,-0.47,0.68
21.461,-0.34,0.52,-0.48,0.78
21.471,-0.49,0.58,-0.44,0.87
21.481,-0.53,0.53,-0.28,0.80
21.491,-0.51,0.40,-0.19,0.67
21.501,-0.47,0.18,-0.16,0.53
21.511,-0.38,-0.09,-0.12,0.41
21.521,-0.23,-0.25,-0.16,0.38
21.531,-0.17,-0.35,-0.17,0.42
21.541,-0.22,-0.42,-0.26,0.54
21.551,-0.25,-0.45,-0.31,0.60
21.561,-0.29,-0.46,-0.21,0.58
21.571,-0.31,-0.37,-0.12,0.50
21.581,-0.30,-0.22,-0.00,0.37
21.591,-0.24,0.01,0.10,0.26
21.601,-0.17,0.14,0.17,0.28
21.612,-0.02,0.16,0.20,0.25
21.622,-0.01,0.09,0.29,0.30
21.632,-0.16,-0.06,0.28,0.33
21.642,-0.31,-0.15,0.13,0.37
21.652,-0.43,-0.09,-0.04,0.44
21.662,-0.54,0.07,-0.13,0.56
21.672,-0.64,0.24,-0.14,0.70
21.682,-0.62,0.32,-0.11,0.71
21.692,-0.52,0.32,-0.17,0.63
21.702,-0.45,0.16,-0.25,0.54
21.712,-0.46,-0.04,-0.22,0.51
21.722,-0.41,-0.15,-0.11,0.45
21.732,-0.40,-0.15,-0.08,0.44
21.742,-0.43,-0.04,-0.08,0.44
21.752,-0.39,0.11,-0.06,0.41
21.762,-0.39,0.12,-0.05,0.42
21.772,-0.39,0.05,-0.08,0.40
21.783,-0.41,-0.04,-0.11,0.42
21.792,-0.37,-0.07,-0.14,0.40
21.803,-0.23,0.05,-0.14,0.28
21.813,-0.10,0.16,-0.16,0.25
21.823,-0.24,0.05,-0.20,0.32
21.833,-0.36,-0.01,-0.20,0.41
21.843,-0.42,-0.05,-0.14,0.44
21.853,-0.38,0.01,-0.10,0.39
21.863,-0.33,0.02,-0.10,0.35
21.873,-0.30,-0.02,-0.12,0.32
21.883,-0.36,-0.13,-0.10,0.39
21.893,-0.41,-0.24,-0.01,0.48
21.903,-0.30,-0.13,0.07,0.33
21.913,-0.19,-0.02,0.04,0.20
21.923,-0.14,0.01,-0.08,0.16
21.933,-0.14,-0.02,-0.19,0.24
21.943,-0.17,-0.09,-0.22,0.30
21.954,-0.15,-0.08,-0.21,0.27
21.963,-0.12,-0.04,-0.22,0.25
21.974,-0.15,-0.07,-0.27,0.32
21.984,-0.22,-0.08,-0.25,0.34
21.994,-0.31,-0.11,-0.21,0.39
22.004,-0.35,-0.01,-0.17,0.39
22.014,-0.38,0.15,-0.14,0.43
22.024,-0.40,0.26,-0.15,0.49
22.034,-0.34,0.29,-0.13,0.47
22.044,-0.23,0.23,-0.12,0.35
22.054,-0.13,0.06,-0.13,0.19
22.064,-0.05,-0.14,-0.13,0.20
22.074,0.02,-0.28,-0.13,0.31
22.084,0.06,-0.31,-0.12,0.34
22.094,0.07,-0.30,-0.08,0.32
22.104,0.06,-0.17,-0.01,0.18
22.114,0.02,-0.02,0.05,0.06
22.124,0.01,0.08,0.04,0.09
22.134,-0.03,0.05,-0.03,0.07
22.144,-0.03,-0.01,-0.05,0.06
22.155,-0.03,-0.05,-0.07,0.09
22.165,-0.04,-0.14,-0.13,0.19
22.175,-0.01,-0.16,-0.10,0.19
22.185,-0.04,-0.14,-0.07,0.16
22.195,-0.08,-0.12,-0.05,0.15
22.205,-0.12,-0.08,-0.03,0.15
22.215,-0.08,0.05,-0.01,0.10
22.225,-0.13,0.12,0.13,0.22
22.235,0.07,0.17,-0.23,0.30
22.245,-0.15,0.35,-0.05,0.38
22.255,-0.13,0.18,-0.02,0.23
22.265,-0.03,0.13,-0.14,0.19
22.275,0.10,0.07,-0.12,0.17
22.285,0.17,0.06,-0.10,0.21
22.295,0.10,0.01,-0.08,0.13
22.305,0.06,-0.07,-0.04,0.10
