time,ax,ay,az,atotal
0.000,0.10,-0.16,0.15,0.24
0.010,0.10,-0.20,0.14,0.26
0.020,0.03,-0.21,0.13,0.25
0.030,-0.01,-0.15,0.10,0.18
0.040,-0.05,-0.03,0.07,0.09
0.050,-0.06,0.04,0.03,0.08
0.060,-0.03,0.06,0.06,0.09
0.071,0.00,0.01,0.06,0.06
0.080,0.06,-0.05,0.08,0.11
0.090,0.11,-0.06,0.11,0.17
0.101,0.11,-0.10,0.14,0.20
0.111,0.06,-0.11,0.15,0.19
0.121,0.03,-0.13,0.17,0.21
0.131,0.01,-0.14,0.19,0.24
0.141,0.03,-0.14,0.20,0.24
0.151,0.08,-0.08,0.13,0.17
0.161,0.16,-0.02,0.11,0.20
0.171,0.33,0.22,0.12,0.41
0.181,0.04,-0.15,0.13,0.20
0.191,0.06,-0.12,0.13,0.19
0.201,0.05,-0.05,0.09,0.11
0.211,-0.00,-0.11,0.03,0.11
0.221,-0.06,-0.18,0.06,0.20
0.231,-0.11,-0.16,0.08,0.21
0.241,-0.08,-0.05,0.08,0.13
0.251,-0.01,0.06,0.05,0.08
0.262,0.02,0.13,-0.02,0.13
0.272,0.04,0.11,-0.07,0.14
0.282,0.03,-0.01,-0.04,0.05
0.292,0.07,-0.07,0.03,0.10
0.302,0.07,-0.11,0.05,0.14
0.312,0.01,-0.14,0.10,0.17
0.322,-0.01,-0.13,0.11,0.17
0.332,-0.04,-0.11,0.09,0.15
0.342,-0.11,-0.10,0.08,0.17
0.352,-0.16,-0.08,0.11,0.21
0.362,-0.15,-0.05,0.11,0.19
0.372,-0.19,-0.05,0.09,0.22
0.382,-0.13,-0.05,0.19,0.24
0.392,-0.05,-0.11,0.32,0.34
0.402,-0.07,-0.22,0.36,0.42
0.412,-0.00,-0.19,0.41,0.46
0.422,0.09,-0.11,0.47,0.50
0.433,0.22,0.01,0.53,0.57
0.443,0.34,0.17,0.48,0.61
0.453,0.30,0.10,0.39,0.50
0.463,0.27,-0.11,0.36,0.46
0.473,0.29,-0.31,0.40,0.58
0.483,0.30,-0.48,0.40,0.69
0.493,0.24,-0.59,0.38,0.74
0.503,0.13,-0.63,0.37,0.74
0.513,-0.03,-0.54,0.39,0.66
0.523,-0.13,-0.28,0.34,0.46
0.533,-0.21,0.06,0.19,0.29
0.543,-0.36,0.21,0.09,0.42
0.553,-0.46,0.16,0.10,0.49
0.563,-0.45,0.03,0.16,0.48
0.573,-0.33,-0.10,0.16,0.38
0.583,-0.23,-0.19,0.09,0.32
0.593,-0.09,-0.20,0.15,0.27
0.604,0.07,-0.16,0.29,0.34
0.613,0.17,-0.12,0.44,0.48
0.624,0.28,-0.08,0.51,0.59
0.633,0.30,-0.14,0.51,0.61
0.644,0.25,-0.22,0.43,0.54
0.654,0.17,-0.22,0.33,0.43
0.664,0.07,-0.15,0.26,0.31
0.674,-0.05,-0.07,0.22,0.24
0.684,-0.14,-0.05,0.18,0.23
0.694,-0.16,-0.07,0.12,0.21
0.704,-0.09,-0.09,0.11,0.17
0.714,0.03,0.00,0.04,0.05
0.724,0.07,0.05,-0.09,0.13
0.734,0.09,-0.05,-0.15,0.18
0.744,0.07,-0.19,-0.15,0.26
0.754,0.03,-0.29,-0.15,0.33
0.764,-0.02,-0.36,-0.15,0.39
0.774,-0.06,-0.30,-0.09,0.32
0.784,-0.12,-0.07,-0.02,0.14
0.795,-0.16,0.27,-0.00,0.31
0.805,-0.17,0.54,-0.06,0.57
0.815,-0.19,0.66,-0.22,0.73
0.825,-0.27,0.48,-0.39,0.68
0.835,-0.25,0.15,-0.44,0.53
0.845,-0.13,-0.05,-0.35,0.37
0.855,0.06,-0.12,-0.28,0.31
0.865,0.23,-0.19,-0.27,0.40
0.875,0.40,-0.24,-0.25,0.52
0.885,0.54,-0.24,-0.22,0.63
0.895,0.68,-0.17,-0.25,0.74
0.905,0.75,0.03,-0.23,0.79
0.915,0.74,0.24,-0.28,0.83
0.925,0.48,0.27,-0.39,0.68
0.935,0.13,0.15,-0.35,0.40
0.945,-0.21,0.09,-0.24,0.33
0.955,-0.41,0.02,-0.19,0.45
0.966,-0.42,-0.08,-0.20,0.47
0.976,-0.28,-0.16,-0.24,0.40
0.985,-0.07,-0.16,-0.26,0.31
0.996,0.09,-0.00,-0.32,0.33
1.006,0.23,0.20,-0.30,0.42
1.016,0.30,0.35,-0.24,0.52
1.026,0.27,0.33,-0.28,0.51
1.036,0.16,0.14,-0.31,0.38
1.046,0.23,-0.05,-0.26,0.35
1.056,0.39,-0.18,-0.14,0.45
1.066,0.57,-0.29,-0.05,0.64
1.076,0.73,-0.37,-0.01,0.82
1.086,0.82,-0.42,0.02,0.92
1.096,0.88,-0.36,0.11,0.96
1.106,0.86,-0.20,0.18,0.90
1.116,0.81,-0.04,0.26,0.86
1.126,0.73,0.06,0.33,0.80
1.136,0.57,-0.02,0.43,0.72
1.147,0.45,-0.16,0.57,0.74
1.157,0.29,-0.18,0.64,0.72
1.167,0.16,-0.01,0.62,0.64
1.177,-0.04,0.27,0.53,0.60
1.187,-0.23,0.52,0.37,0.68
1.197,-0.34,0.56,0.24,0.70
1.207,-0.37,0.51,0.18,0.66
1.217,-0.21,0.38,0.26,0.51
1.227,0.02,0.26,0.32,0.41
1.237,0.23,0.09,0.33,0.41
1.247,0.43,-0.09,0.33,0.55
1.257,0.59,-0.18,0.38,0.72
1.267,0.74,-0.19,0.42,0.87
1.277,0.88,-0.16,0.49,1.02
1.288,1.04,-0.10,0.55,1.18
1.297,1.22,-0.01,0.60,1.36
1.307,1.24,0.01,0.45,1.32
1.317,1.08,-0.13,0.31,1.14
1.327,0.95,-0.23,0.31,1.03
1.338,0.82,-0.29,0.42,0.96
1.348,0.67,-0.37,0.49,0.91
1.358,0.55,-0.45,0.48,0.86
1.368,0.54,-0.45,0.53,0.88
1.378,0.55,-0.35,0.58,0.87
1.388,0.52,-0.23,0.57,0.80
1.398,0.47,-0.25,0.56,0.77
1.408,0.54,-0.36,0.54,0.85
1.418,0.60,-0.46,0.57,0.94
1.428,0.72,-0.50,0.67,1.10
1.438,0.87,-0.43,0.70,1.19
1.448,0.97,-0.29,0.68,1.22
1.458,0.96,-0.16,0.60,1.14
1.468,0.82,-0.12,0.54,0.99
1.478,0.62,-0.12,0.50,0.80
1.488,0.36,-0.09,0.44,0.58
1.498,0.12,-0.18,0.37,0.43
1.508,-0.04,-0.28,0.35,0.45
1.519,-0.12,-0.40,0.38,0.57
1.529,-0.18,-0.50,0.40,0.66
1.539,-0.20,-0.53,0.38,0.68
1.549,-0.18,-0.50,0.46,0.70
1.559,-0.11,-0.46,0.60,0.76
1.569,-0.03,-0.45,0.74,0.87
1.579,0.11,-0.51,0.84,0.99
1.589,0.34,-0.56,0.92,1.13
1.599,0.67,-0.50,0.92,1.24
1.609,0.96,-0.41,0.88,1.37
1.619,1.27,-0.26,0.94,1.60
1.629,1.52,-0.05,0.97,1.80
1.639,1.64,0.09,0.95,1.90
1.649,1.69,0.17,0.98,1.96
1.659,1.71,0.24,1.16,2.08
1.669,1.73,0.25,1.39,2.24
1.679,1.83,0.23,1.57,2.42
1.689,1.95,0.11,1.67,2.57
1.699,2.11,-0.08,1.73,2.73
1.710,2.21,-0.35,1.68,2.80
1.720,2.24,-0.52,1.60,2.80
1.730,2.23,-0.57,1.57,2.79
1.740,2.19,-0.57,1.52,2.73
1.750,2.12,-0.52,1.46,2.63
1.760,2.12,-0.53,1.54,2.68
1.770,1.97,-0.49,1.61,2.59
1.780,1.72,-0.20,1.55,2.32
1.790,1.40,0.25,1.43,2.02
1.800,1.13,0.69,1.24,1.82
1.810,0.89,1.19,0.87,1.72
1.820,0.54,1.53,0.35,1.66
1.830,0.16,1.63,0.01,1.64
1.840,-0.12,1.73,-0.21,1.74
1.850,-0.36,1.85,-0.58,1.97
1.861,-0.72,1.90,-0.94,2.24
1.871,-1.13,1.86,-1.14,2.45
1.881,-1.33,1.51,-1.13,2.30
1.891,-1.27,0.80,-1.01,1.80
1.901,-1.06,0.03,-0.89,1.38
1.911,-0.84,-0.69,-0.92,1.43
1.921,-0.47,-1.27,-1.06,1.72
1.931,-0.01,-1.56,-1.33,2.05
1.941,0.35,-1.46,-1.53,2.14
1.951,0.46,-1.09,-1.62,2.01
1.961,0.31,-0.64,-1.44,1.61
1.971,0.08,-0.46,-1.01,1.12
1.981,-0.31,-0.14,-0.63,0.71
1.991,-0.36,0.39,-0.43,0.68
2.001,-0.35,0.80,-0.34,0.93
2.011,-0.48,1.16,-0.10,1.26
2.022,-0.73,1.47,0.19,1.65
2.032,-0.75,1.43,0.17,1.63
2.042,-0.63,1.16,-0.11,1.32
2.052,-0.46,0.87,-0.29,1.02
2.062,-0.29,0.57,-0.23,0.68
2.072,0.09,0.11,-0.03,0.14
2.082,0.51,-0.09,0.24,0.57
2.092,0.81,-0.03,0.42,0.91
2.102,0.95,0.12,0.36,1.02
2.112,0.93,0.10,0.17,0.95
2.122,0.86,-0.08,0.00,0.87
2.132,0.77,-0.26,-0.06,0.82
2.142,0.61,-0.42,0.01,0.74
2.152,0.31,-0.52,0.06,0.61
2.162,-0.18,-0.53,0.07,0.56
2.172,-0.67,-0.61,0.16,0.92
2.182,-1.06,-0.75,0.26,1.33
2.192,-1.28,-0.90,0.37,1.61
2.202,-1.34,-0.99,0.40,1.72
2.213,-1.20,-1.06,0.17,1.61
2.223,-1.00,-1.08,-0.09,1.47
2.233,-0.91,-1.04,-0.19,1.39
2.243,-0.87,-0.90,-0.11,1.26
2.253,-0.75,-0.81,0.08,1.10
2.263,-0.57,-0.80,0.22,1.01
2.273,-0.36,-0.80,0.20,0.90
2.283,-0.13,-0.88,0.21,0.91
2.293,0.07,-1.00,0.29,1.04
2.303,0.31,-1.12,0.42,1.24
2.313,0.59,-1.30,0.57,1.54
2.323,0.83,-1.44,0.60,1.77
2.333,1.04,-1.39,0.60,1.83
2.343,1.09,-1.24,0.64,1.77
2.353,0.91,-1.09,0.63,1.55
2.363,0.43,-0.82,0.45,1.03
2.373,-0.22,-0.67,0.37,0.80
2.383,-0.69,-0.68,0.40,1.05
2.393,-0.73,-0.69,0.68,1.21
2.404,-0.53,-0.81,0.99,1.38
2.414,-0.19,-0.93,1.12,1.47
2.424,0.24,-0.90,1.03,1.39
2.434,0.53,-0.68,0.91,1.25
2.444,0.67,-0.42,0.95,1.24
2.454,0.66,0.02,1.13,1.31
2.464,0.58,0.45,1.47,1.65
2.474,0.71,0.74,1.71,2.00
2.484,0.92,0.74,1.79,2.15
2.494,1.17,0.53,1.93,2.31
2.504,1.50,0.35,2.10,2.60
2.514,1.74,0.24,2.22,2.83
2.524,1.91,0.27,2.40,3.08
2.534,2.13,0.65,2.58,3.41
2.544,2.33,1.67,2.41,3.75
2.554,1.93,3.12,1.85,4.11
2.564,0.84,4.18,1.46,4.51
2.574,-0.62,4.27,0.96,4.42
2.584,-1.91,3.69,0.06,4.15
2.595,-2.51,3.23,-0.82,4.17
2.605,-2.84,3.09,-1.27,4.38
2.615,-2.88,3.11,-1.31,4.43
2.625,-2.54,2.87,-1.48,4.11
2.635,-2.15,1.64,-1.66,3.17
2.645,-1.59,-0.01,-1.61,2.26
2.655,-0.92,-1.37,-1.84,2.47
2.665,-0.39,-2.28,-2.15,3.16
2.675,-0.25,-2.78,-2.24,3.57
2.685,-0.47,-2.75,-2.15,3.52
2.695,-0.75,-2.18,-1.88,2.98
2.705,-1.06,-1.47,-1.63,2.44
2.715,-1.24,-0.81,-1.56,2.16
2.725,-1.09,-0.32,-1.61,1.97
2.735,-0.85,0.02,-1.72,1.92
2.745,-0.59,0.21,-1.74,1.85
2.756,-0.27,0.29,-1.69,1.74
2.765,0.05,0.27,-1.54,1.56
2.776,0.27,0.21,-1.27,1.32
2.786,0.48,0.20,-1.06,1.18
2.796,0.62,0.20,-1.06,1.25
2.806,0.68,0.10,-1.05,1.25
2.816,0.63,-0.06,-0.85,1.06
2.826,0.53,-0.15,-0.63,0.83
2.836,0.45,-0.33,-0.46,0.72
2.846,0.13,-0.50,-0.43,0.67
2.856,-0.22,-0.73,-0.52,0.92
2.866,-0.33,-0.84,-0.70,1.14
2.876,-0.26,-0.76,-0.81,1.14
2.886,-0.18,-0.67,-0.81,1.06
2.896,-0.09,-0.58,-0.73,0.93
2.906,-0.00,-0.54,-0.61,0.81
2.917,0.09,-0.50,-0.50,0.71
2.926,0.16,-0.50,-0.42,0.67
2.937,0.23,-0.48,-0.29,0.61
2.947,0.31,-0.36,-0.08,0.48
2.957,0.49,-0.29,0.15,0.59
2.967,0.71,-0.23,0.31,0.80
2.977,0.92,-0.23,0.33,1.00
2.987,1.09,-0.30,0.39,1.19
2.997,1.06,-0.41,0.51,1.25
3.007,0.90,-0.52,0.57,1.18
3.017,0.73,-0.59,0.57,1.10
3.027,0.59,-0.62,0.65,1.07
3.037,0.63,-0.65,0.83,1.23
3.047,0.81,-0.59,0.95,1.38
3.057,0.95,-0.47,0.88,1.38
3.067,1.04,-0.43,0.77,1.37
3.077,1.06,-0.51,0.70,1.36
3.087,1.07,-0.63,0.62,1.38
3.097,1.12,-0.66,0.59,1.43
3.108,1.11,-0.62,0.63,1.42
3.117,1.01,-0.56,0.74,1.37
3.128,0.89,-0.43,0.77,1.25
3.138,0.73,-0.33,0.72,1.08
3.148,0.66,-0.20,0.81,1.06
3.158,0.59,-0.04,0.92,1.09
3.168,0.52,0.09,0.94,1.08
3.178,0.46,0.26,0.77,0.93
3.188,0.38,0.32,0.50,0.70
3.198,0.20,0.09,0.40,0.45
3.208,0.14,-0.23,0.54,0.60
3.218,0.29,-0.50,0.85,1.03
3.228,0.66,-0.57,1.19,1.47
3.238,1.06,-0.44,1.40,1.81
3.248,1.39,-0.11,1.45,2.01
3.258,1.52,0.22,1.39,2.07
3.268,1.35,0.45,1.19,1.86
3.278,1.02,0.64,1.07,1.61
3.289,0.78,0.96,0.95,1.56
3.299,0.79,1.32,1.02,1.84
3.309,1.18,1.67,1.38,2.47
3.319,1.52,1.96,1.27,2.79
3.329,1.58,2.21,0.82,2.84
3.339,1.45,2.15,0.56,2.65
3.349,1.23,1.85,0.43,2.26
3.359,0.82,1.53,0.33,1.76
3.369,0.27,1.42,-0.03,1.44
3.379,-0.34,1.48,-0.45,1.58
3.389,-0.98,1.59,-0.69,1.99
3.399,-1.64,1.58,-0.79,2.41
3.409,-2.25,1.39,-1.18,2.90
3.419,-2.40,0.81,-1.78,3.10
3.429,-2.14,0.01,-2.32,3.16
3.439,-1.65,-1.01,-2.57,3.21
3.449,-1.29,-1.92,-2.60,3.48
3.459,-0.93,-2.32,-2.41,3.47
3.470,-0.53,-2.10,-2.07,2.99
3.480,0.02,-1.49,-1.58,2.16
3.490,0.44,-0.68,-1.03,1.31
3.500,0.55,0.56,-0.62,1.01
3.510,0.58,1.50,-0.44,1.67
3.520,0.38,1.84,-0.37,1.91
3.530,0.07,1.99,-0.31,2.02
3.540,-0.22,2.10,-0.08,2.12
3.550,-0.42,2.02,0.17,2.07
3.560,-0.54,1.82,0.17,1.90
3.570,-0.55,1.48,-0.17,1.59
3.580,-0.38,1.07,-0.70,1.33
3.590,0.10,0.98,-0.85,1.30
3.600,0.29,0.81,-0.84,1.20
3.610,-0.13,-0.08,-0.81,0.82
3.620,-0.26,-0.98,-0.67,1.21
3.631,-0.05,-1.58,-0.50,1.65
3.641,-0.08,-2.13,-0.38,2.17
3.651,-0.13,-2.49,-0.22,2.50
3.660,-0.16,-2.62,0.02,2.63
3.671,-0.13,-2.73,0.22,2.74
3.681,-0.13,-2.56,0.32,2.59
3.691,-0.18,-2.26,0.35,2.29
3.701,-0.19,-1.88,0.39,1.93
3.711,-0.25,-1.46,0.43,1.54
3.721,-0.36,-1.02,0.48,1.18
3.731,-0.44,-0.62,0.39,0.85
3.741,-0.44,-0.30,0.30,0.62
3.751,-0.43,-0.21,0.29,0.55
3.761,-0.42,-0.33,0.39,0.66
3.771,-0.32,-0.62,0.39,0.80
3.781,-0.04,-0.91,0.37,0.98
3.791,0.29,-1.17,0.53,1.31
3.801,0.50,-1.37,0.69,1.61
3.811,0.67,-1.50,0.89,1.87
3.822,0.84,-1.57,1.12,2.10
3.832,1.04,-1.57,1.32,2.30
3.842,1.24,-1.50,1.52,2.47
3.852,1.37,-1.34,1.71,2.57
3.862,1.17,-1.04,1.51,2.17
3.872,0.76,-0.85,1.32,1.75
3.882,0.33,-0.61,1.31,1.48
3.892,-0.07,-0.21,1.54,1.55
3.902,-0.45,0.11,1.62,1.68
3.912,-0.51,0.36,1.18,1.34
3.922,-0.31,0.56,1.18,1.34
3.932,0.21,0.73,1.58,1.75
3.942,0.68,1.03,1.99,2.34
3.952,0.78,1.23,2.11,2.56
3.962,0.66,1.20,2.19,2.59
3.972,0.65,0.92,2.65,2.88
3.982,0.98,0.67,3.12,3.34
3.993,1.59,0.52,3.33,3.73
4.003,2.21,0.35,3.42,4.09
4.013,2.47,0.57,3.11,4.01
4.023,2.41,1.48,2.80,3.98
4.033,2.13,3.00,2.37,4.37
4.043,1.10,4.24,1.82,4.74
4.053,-0.51,4.41,0.92,4.53
4.063,-1.85,3.67,-0.12,4.11
4.073,-2.44,2.67,-0.98,3.74
4.083,-2.51,1.91,-1.54,3.51
4.093,-2.62,1.51,-1.87,3.55
4.103,-2.87,1.05,-1.96,3.63
4.113,-2.56,0.17,-1.87,3.18
4.123,-1.60,-0.88,-1.91,2.64
4.133,-0.63,-1.53,-2.13,2.69
4.143,-0.03,-1.81,-2.57,3.14
4.153,0.31,-1.87,-2.91,3.47
4.164,0.21,-1.65,-2.91,3.35
4.173,-0.52,-1.11,-2.57,2.85
4.183,-1.46,-0.37,-2.14,2.61
4.194,-2.19,0.38,-1.91,2.93
4.204,-2.46,0.92,-1.86,3.22
4.214,-2.39,1.15,-1.71,3.16
4.224,-2.09,1.03,-1.56,2.81
4.234,-1.64,0.61,-1.47,2.28
4.244,-1.16,0.12,-1.31,1.75
4.254,-0.70,-0.38,-1.18,1.42
4.264,-0.25,-0.72,-0.92,1.20
4.274,0.24,-0.92,-0.70,1.18
4.284,0.62,-1.04,-0.62,1.36
4.294,0.78,-1.15,-0.63,1.52
4.304,0.83,-1.23,-0.70,1.64
4.315,0.83,-1.33,-0.73,1.73
4.324,0.74,-1.38,-0.69,1.71
4.334,0.61,-1.34,-0.65,1.60
4.344,0.45,-1.17,-0.60,1.40
4.355,0.36,-1.07,-0.52,1.24
4.365,0.27,-0.98,-0.43,1.11
4.375,0.19,-0.81,-0.37,0.92
4.385,0.29,-0.64,-0.32,0.77
4.395,0.42,-0.49,-0.25,0.69
4.405,0.59,-0.48,-0.13,0.77
4.415,0.72,-0.45,-0.09,0.86
4.425,0.73,-0.42,-0.03,0.85
4.435,0.72,-0.41,0.09,0.83
4.445,0.77,-0.47,0.26,0.94
4.455,0.76,-0.52,0.46,1.03
4.465,0.76,-0.72,0.65,1.23
4.475,0.77,-0.90,0.73,1.39
4.485,0.77,-0.99,0.73,1.45
4.495,0.78,-0.95,0.65,1.39
4.505,0.89,-0.79,0.62,1.34
4.515,1.03,-0.65,0.59,1.35
4.526,1.16,-0.58,0.57,1.41
4.536,1.28,-0.58,0.63,1.54
4.546,1.31,-0.60,0.71,1.61
4.556,1.25,-0.63,0.71,1.57
4.566,1.16,-0.62,0.64,1.46
4.576,1.01,-0.51,0.56,1.26
4.586,0.76,-0.23,0.72,1.07
4.596,0.50,0.13,1.10,1.22
4.606,0.36,0.40,1.49,1.59
4.616,0.40,0.50,1.81,1.92
4.626,0.58,0.46,1.95,2.08
4.636,0.86,0.38,1.91,2.13
4.646,1.23,0.36,1.71,2.13
4.656,1.53,0.34,1.48,2.16
4.666,1.65,0.42,1.44,2.23
4.676,1.50,0.86,1.48,2.27
4.686,1.01,1.41,1.54,2.32
4.696,0.61,1.66,1.75,2.49
4.707,0.57,1.75,1.99,2.71
4.716,0.42,1.99,1.71,2.66
4.727,0.19,2.33,0.91,2.51
4.737,0.18,2.42,0.51,2.48
4.747,0.08,2.52,0.20,2.53
4.757,-0.29,2.78,-0.89,2.94
4.767,-0.81,2.64,-2.50,3.73
4.777,-1.49,2.02,-3.95,4.68
4.787,-2.32,1.04,-4.62,5.27
4.797,-3.02,-0.28,-4.56,5.47
4.807,-3.27,-1.42,-3.97,5.34
4.817,-2.84,-1.94,-3.09,4.62
4.827,-1.95,-1.64,-2.21,3.37
4.837,-1.02,-0.87,-1.55,2.04
4.847,-0.10,-0.16,-1.20,1.22
4.857,0.57,0.36,-0.99,1.20
4.867,0.74,0.97,-0.78,1.45
4.877,0.59,1.35,-0.68,1.63
4.888,0.34,1.59,-0.69,1.77
4.898,0.19,1.98,-0.59,2.08
4.908,0.00,2.36,-0.31,2.38
4.918,-0.34,2.26,-0.39,2.32
4.928,-0.84,1.76,-0.69,2.07
4.938,-0.76,1.42,-0.61,1.73
4.948,-0.21,1.44,-0.47,1.53
4.958,-0.42,0.89,-0.65,1.18
4.968,-0.64,0.06,-0.63,0.90
4.978,-0.52,-0.57,-0.45,0.90
4.988,-0.43,-1.15,-0.40,1.29
4.998,-0.27,-1.64,-0.41,1.71
5.008,-0.27,-2.12,-0.35,2.16
5.018,-0.39,-2.38,-0.07,2.41
5.028,-0.49,-2.49,0.17,2.54
5.038,-0.37,-2.49,0.21,2.52
5.048,-0.24,-2.36,0.18,2.38
5.058,-0.24,-2.23,0.13,2.25
5.069,-0.21,-2.12,0.17,2.13
5.079,-0.21,-1.98,0.28,2.01
5.089,-0.17,-1.79,0.25,1.81
5.099,-0.10,-1.67,0.28,1.70
5.109,0.01,-1.63,0.23,1.65
5.119,0.05,-1.58,0.19,1.59
5.129,0.04,-1.47,0.25,1.49
5.139,0.04,-1.46,0.28,1.49
5.149,-0.01,-1.48,0.40,1.53
5.159,-0.04,-1.50,0.58,1.61
5.169,0.03,-1.47,0.77,1.65
5.179,0.33,-1.34,0.92,1.66
5.189,0.69,-1.23,1.00,1.73
5.199,0.84,-1.17,1.10,1.81
5.209,0.90,-1.03,1.21,1.82
5.219,0.90,-0.84,1.26,1.77
5.229,0.82,-0.67,1.27,1.65
5.239,0.70,-0.49,1.36,1.60
5.250,0.60,-0.29,1.63,1.76
5.260,0.57,0.01,1.64,1.74
5.270,0.57,0.29,1.33,1.48
5.280,0.60,0.46,1.17,1.39
5.290,0.59,0.49,1.06,1.31
5.300,0.40,0.47,1.06,1.22
5.310,0.01,0.50,1.15,1.26
5.320,-0.23,0.64,1.46,1.61
5.330,-0.22,0.64,1.99,2.10
5.340,0.01,0.59,2.53,2.59
5.350,0.38,0.70,3.00,3.11
5.360,0.88,1.18,3.24,3.56
5.370,1.20,2.28,3.00,3.95
5.380,1.08,3.93,2.32,4.69
5.390,0.76,5.58,1.89,5.94
5.400,0.00,6.65,1.64,6.84
5.410,-1.06,6.58,1.17,6.77
5.421,-1.71,5.34,0.39,5.62
5.430,-1.88,3.47,-0.43,3.96
5.441,-1.87,1.39,-0.42,2.36
5.451,-1.27,0.10,0.24,1.30
5.461,-0.62,-0.51,0.67,1.05
5.471,-0.02,-1.03,0.57,1.18
5.481,0.69,-1.55,0.02,1.69
5.491,1.02,-2.12,-0.81,2.49
5.501,1.03,-2.54,-1.70,3.23
5.511,0.78,-2.56,-2.50,3.66
5.521,0.28,-2.16,-2.89,3.62
5.531,-0.56,-1.46,-2.84,3.24
5.541,-1.54,-0.69,-2.61,3.11
5.551,-2.43,-0.07,-2.68,3.62
5.561,-2.96,0.44,-2.70,4.03
5.571,-2.98,0.75,-2.64,4.05
5.581,-2.62,0.78,-2.40,3.64
5.591,-2.21,0.55,-2.00,3.03
5.602,-1.70,0.07,-1.39,2.20
5.612,-1.11,-0.48,-0.76,1.43
5.622,-0.54,-0.88,-0.35,1.09
5.632,0.04,-1.26,-0.25,1.28
5.642,0.38,-1.57,-0.25,1.63
5.652,0.56,-1.62,-0.33,1.74
5.662,0.77,-1.63,-0.43,1.85
5.672,0.96,-1.71,-0.49,2.02
5.682,1.13,-1.76,-0.50,2.15
5.692,1.32,-1.66,-0.46,2.17
5.702,1.44,-1.50,-0.52,2.15
5.712,1.38,-1.31,-0.60,2.00
5.722,1.15,-1.14,-0.62,1.74
5.732,0.85,-0.95,-0.57,1.39
5.742,0.61,-0.83,-0.51,1.15
5.752,0.32,-0.78,-0.43,0.95
5.762,0.14,-0.72,-0.28,0.78
5.772,0.14,-0.74,-0.11,0.76
5.783,0.30,-0.81,0.06,0.87
5.792,0.42,-0.98,0.34,1.12
5.803,0.58,-1.15,0.68,1.46
5.813,0.87,-1.18,1.06,1.81
5.823,1.34,-1.15,1.37,2.23
5.833,1.72,-1.07,1.41,2.47
5.843,1.92,-0.97,1.15,2.44
5.853,2.00,-0.75,0.89,2.31
5.863,2.04,-0.42,0.70,2.20
5.873,1.81,-0.11,0.51,1.89
5.883,1.27,-0.05,0.46,1.36
5.893,0.74,-0.12,0.55,0.93
5.903,0.43,-0.12,0.58,0.73
5.913,0.21,-0.09,0.68,0.71
5.923,0.14,-0.15,0.91,0.94
5.933,0.17,-0.29,1.29,1.34
5.943,0.42,-0.07,1.64,1.70
5.954,0.82,0.41,1.95,2.15
5.964,1.15,0.86,2.29,2.71
5.974,1.46,1.21,2.51,3.15
5.984,1.68,1.37,2.50,3.31
5.994,1.71,1.50,2.11,3.10
6.004,1.28,2.05,1.20,2.70
6.014,0.51,2.56,0.83,2.74
6.024,0.29,2.45,1.75,3.03
6.034,0.40,2.53,2.52,3.59
6.044,0.27,3.02,1.70,3.47
6.054,0.18,3.65,-0.01,3.66
6.064,0.10,4.13,-1.81,4.51
6.074,-0.22,4.04,-3.35,5.25
6.084,-1.06,3.12,-4.62,5.67
6.094,-2.43,1.82,-5.27,6.08
6.104,-3.70,0.25,-4.95,6.18
6.114,-4.25,-1.38,-3.86,5.90
6.124,-3.99,-2.31,-2.68,5.33
6.134,-2.82,-2.18,-1.84,4.01
6.144,-1.33,-1.42,-1.43,2.41
6.155,-0.08,-0.54,-1.46,1.56
6.165,0.80,0.11,-1.61,1.80
6.175,1.39,0.70,-1.45,2.13
6.185,1.79,0.99,-1.17,2.35
6.195,1.82,1.33,-0.96,2.45
6.205,1.42,1.83,-0.70,2.42
6.215,0.72,2.12,-0.45,2.28
6.225,-0.19,1.94,-0.40,1.99
6.235,-0.83,1.47,-0.46,1.75
6.245,-0.44,1.51,-0.41,1.62
6.255,-0.21,1.22,-0.47,1.33
6.265,-0.42,0.10,-0.59,0.74
6.275,-0.17,-0.81,-0.49,0.96
6.285,0.27,-1.44,-0.39,1.52
6.295,0.64,-1.83,-0.29,1.96
6.305,0.71,-2.19,-0.32,2.32
6.315,0.58,-2.39,-0.39,2.49
6.326,0.33,-2.54,-0.46,2.60
6.336,-0.02,-2.73,-0.54,2.78
6.346,-0.41,-2.83,-0.42,2.89
6.356,-0.73,-2.79,-0.17,2.89
6.366,-1.02,-2.64,0.09,2.83
6.376,-1.29,-2.44,0.26,2.78
6.386,-1.39,-2.16,0.37,2.59
6.396,-1.26,-1.89,0.46,2.32
6.406,-0.95,-1.78,0.51,2.08
6.416,-0.61,-1.65,0.58,1.85
6.426,-0.22,-1.53,0.75,1.72
6.436,0.21,-1.51,0.97,1.81
6.446,0.63,-1.60,1.15,2.07
6.456,1.12,-1.69,1.16,2.34
6.466,1.65,-1.73,1.03,2.60
6.476,2.05,-1.61,1.02,2.80
6.487,2.28,-1.26,1.17,2.85
6.497,2.15,-0.86,1.06,2.55
6.507,1.77,-0.40,0.84,2.00
6.517,1.19,0.06,0.93,1.51
6.527,0.58,0.42,0.90,1.15
6.537,0.04,0.73,1.18,1.39
6.547,-0.24,0.83,1.59,1.81
6.557,-0.14,0.98,1.59,1.87
6.567,0.19,1.06,1.66,1.98
6.577,0.48,1.01,1.68,2.02
6.587,0.50,0.85,1.70,1.96
6.597,0.48,0.61,1.64,1.81
6.607,0.78,0.50,2.05,2.25
6.617,1.37,0.48,2.67,3.04
6.627,1.79,0.78,2.86,3.47
6.637,1.86,1.94,2.20,3.47
6.647,1.45,3.76,1.15,4.19
6.657,0.62,5.81,0.32,5.85
6.668,-0.67,7.27,-0.03,7.30
6.678,-1.84,7.27,-0.36,7.51
6.688,-2.51,5.68,-0.82,6.26
6.698,-2.52,3.34,-0.97,4.30
6.708,-1.99,1.29,-0.76,2.49
6.718,-1.37,-0.22,-0.16,1.40
6.728,-0.60,-1.43,0.33,1.58
6.738,0.13,-2.24,0.22,2.25
6.748,0.58,-2.67,-0.25,2.74
6.758,0.76,-2.64,-1.12,2.97
6.768,0.54,-2.08,-2.32,3.17
6.778,-0.11,-1.25,-3.08,3.32
6.788,-1.12,-0.39,-3.20,3.41
6.798,-2.24,0.30,-3.22,3.94
6.808,-3.12,0.60,-3.11,4.44
6.818,-3.47,0.63,-2.83,4.52
6.828,-3.27,0.51,-2.44,4.11
6.838,-2.63,0.33,-1.93,3.28
6.849,-1.95,0.07,-1.37,2.39
6.859,-1.36,-0.48,-1.06,1.79
6.869,-0.79,-1.05,-0.80,1.53
6.879,-0.24,-1.46,-0.48,1.55
6.889,0.24,-1.77,-0.32,1.82
6.899,0.63,-1.78,-0.28,1.91
6.909,0.80,-1.54,-0.37,1.77
6.919,0.88,-1.22,-0.55,1.60
6.929,1.01,-1.14,-0.59,1.63
6.939,1.09,-1.24,-0.60,1.76
6.949,1.26,-1.46,-0.65,2.04
6.959,1.28,-1.56,-0.65,2.12
6.969,1.23,-1.60,-0.51,2.08
6.979,1.19,-1.51,-0.45,1.97
6.989,1.16,-1.32,-0.51,1.83
6.999,1.06,-1.10,-0.45,1.59
7.009,0.90,-0.85,-0.24,1.26
7.020,0.74,-0.63,0.01,0.97
7.030,0.59,-0.62,0.25,0.89
7.040,0.59,-0.88,0.44,1.15
7.050,0.69,-1.16,0.61,1.48
7.060,0.87,-1.29,0.74,1.72
7.070,1.10,-1.38,0.81,1.95
7.080,1.27,-1.37,0.90,2.08
7.090,1.34,-1.30,1.07,2.15
7.100,1.36,-1.14,1.10,2.09
7.110,1.32,-0.88,0.97,1.86
7.120,1.37,-0.53,0.81,1.68
7.130,1.44,-0.17,0.53,1.54
7.140,1.40,0.10,0.28,1.43
7.150,1.42,0.18,0.42,1.49
7.160,1.48,0.34,0.73,1.68
7.170,1.47,0.61,0.97,1.86
7.180,1.43,0.85,1.23,2.07
7.190,1.41,0.84,1.79,2.43
7.200,1.53,0.71,2.10,2.70
7.210,1.93,0.56,1.93,2.79
7.221,2.26,0.50,1.85,2.96
7.231,2.33,0.39,1.95,3.06
7.241,2.14,0.37,2.01,2.95
7.251,1.56,0.81,1.64,2.41
7.261,0.42,1.63,1.45,2.22
7.271,-0.20,2.16,1.95,2.92
7.281,-0.56,2.64,2.31,3.55
7.291,-1.43,3.15,1.42,3.74
7.301,-1.89,3.79,-0.56,4.27
7.311,-1.86,4.40,-2.78,5.53
7.321,-2.15,4.06,-4.61,6.51
7.331,-3.05,2.84,-5.64,7.01
7.341,-4.09,1.53,-5.65,7.14
7.352,-4.71,0.24,-4.56,6.56
7.361,-4.47,-0.76,-2.93,5.40
7.371,-3.32,-1.04,-1.89,3.95
7.382,-1.99,-0.45,-1.64,2.61
7.392,-0.87,0.52,-1.50,1.81
7.402,-0.05,0.98,-1.24,1.58
7.412,0.63,0.93,-0.92,1.45
7.422,1.20,0.78,-0.72,1.60
7.432,1.56,0.75,-0.57,1.82
7.442,1.59,0.93,-0.29,1.87
7.452,1.12,1.19,-0.19,1.64
7.462,0.20,1.13,-0.46,1.24
7.472,-0.62,0.83,-0.62,1.20
7.482,-0.86,0.80,-0.51,1.28
7.492,-0.78,0.66,-0.47,1.13
7.502,-0.98,-0.14,-0.59,1.15
7.512,-0.99,-1.09,-0.58,1.58
7.522,-0.66,-1.68,-0.47,1.86
7.532,-0.40,-2.25,-0.38,2.32
7.542,-0.05,-2.57,-0.28,2.58
7.553,0.25,-2.63,-0.20,2.65
7.563,0.17,-2.88,-0.20,2.90
7.573,-0.16,-2.90,-0.05,2.91
7.583,-0.55,-2.80,0.17,2.86
7.593,-0.90,-2.49,0.47,2.69
7.603,-1.20,-2.14,0.69,2.55
7.613,-1.30,-1.82,0.75,2.36
7.623,-1.28,-1.59,0.76,2.18
7.633,-1.18,-1.53,0.81,2.10
7.643,-0.88,-1.70,0.75,2.06
7.653,-0.38,-2.03,0.48,2.12
7.663,0.21,-2.17,0.32,2.20
7.673,0.68,-2.10,0.41,2.25
7.683,0.85,-1.91,0.61,2.18
7.693,0.83,-1.60,0.77,1.96
7.703,0.73,-1.19,0.78,1.60
7.713,0.57,-0.71,0.80,1.22
7.723,0.43,-0.16,0.85,0.97
7.733,0.25,0.25,0.95,1.02
7.743,0.09,0.47,1.25,1.34
7.754,0.09,0.45,1.68,1.74
7.764,0.33,0.34,1.71,1.78
7.774,0.49,0.32,1.60,1.70
7.784,0.53,0.69,1.34,1.60
7.794,0.08,1.18,1.37,1.81
7.804,-0.54,1.32,1.41,2.00
7.814,-0.85,0.89,1.72,2.12
7.824,-0.41,0.48,2.53,2.61
7.834,0.62,0.25,3.19,3.26
7.844,1.52,0.31,3.47,3.80
7.854,2.16,0.78,3.49,4.18
7.864,2.60,1.96,3.31,4.64
7.875,2.65,4.06,2.50,5.46
7.884,2.12,6.18,1.58,6.72
7.894,0.40,6.77,0.59,6.80
7.905,-2.01,5.42,-0.70,5.82
7.915,-3.22,3.66,-1.68,5.16
7.924,-3.29,2.48,-1.54,4.40
7.935,-2.96,1.51,-0.87,3.43
7.945,-2.26,0.64,-0.52,2.40
7.955,-1.40,-0.25,-0.40,1.47
7.965,-0.26,-1.16,-0.75,1.40
7.975,0.89,-1.88,-1.41,2.51
7.985,1.47,-2.01,-2.37,3.44
7.995,1.48,-1.62,-3.23,3.91
8.005,1.19,-1.18,-3.30,3.70
8.015,0.27,-0.94,-2.92,3.08
8.025,-0.99,-0.58,-2.53,2.78
8.035,-2.00,-0.14,-2.31,3.06
8.045,-2.70,0.07,-2.13,3.44
8.055,-2.94,0.07,-1.92,3.51
8.065,-2.76,-0.03,-1.69,3.24
8.075,-2.24,-0.21,-1.51,2.71
8.085,-1.56,-0.45,-1.26,2.06
8.096,-0.80,-0.82,-0.95,1.49
8.106,-0.19,-1.17,-0.79,1.42
8.116,0.28,-1.48,-0.72,1.67
8.126,0.64,-1.69,-0.70,1.93
8.136,0.80,-1.71,-0.72,2.02
8.146,0.81,-1.62,-0.73,1.95
8.156,0.84,-1.66,-0.75,2.01
8.166,0.79,-1.71,-0.66,1.99
8.176,0.79,-1.64,-0.57,1.91
8.186,0.84,-1.46,-0.53,1.76
8.196,0.95,-1.18,-0.48,1.59
8.206,1.05,-0.90,-0.37,1.44
8.216,1.10,-0.69,-0.25,1.32
8.226,1.06,-0.61,-0.06,1.22
8.236,0.93,-0.66,0.21,1.16
8.246,0.87,-0.67,0.42,1.17
8.256,1.02,-0.88,0.57,1.47
8.266,1.15,-1.00,0.72,1.69
8.276,1.24,-1.06,0.88,1.85
8.287,1.34,-1.20,1.02,2.07
8.297,1.44,-1.25,1.19,2.25
8.307,1.41,-1.20,1.36,2.30
8.317,1.32,-1.04,1.52,2.27
8.327,1.20,-0.92,1.46,2.10
8.337,1.10,-0.77,1.05,1.70
8.347,1.12,-0.49,0.53,1.33
8.357,1.19,-0.20,0.18,1.22
8.367,1.18,-0.06,0.13,1.19
8.377,1.21,0.28,0.19,1.25
8.387,1.27,0.72,0.36,1.51
8.397,1.23,0.93,0.74,1.71
8.407,1.00,1.00,1.18,1.85
8.417,1.07,0.96,1.59,2.14
8.427,1.38,0.66,2.05,2.56
8.438,1.65,0.32,2.50,3.01
8.447,1.91,0.23,2.79,3.39
8.458,1.95,0.40,2.71,3.36
8.468,1.42,1.24,2.02,2.76
8.478,0.36,2.07,1.60,2.64
8.488,-0.08,2.56,2.00,3.25
8.498,-0.56,3.21,1.92,3.79
8.508,-1.27,3.63,0.75,3.92
8.518,-1.43,3.96,-0.86,4.30
8.528,-1.33,4.35,-2.83,5.36
8.538,-1.48,3.80,-4.95,6.42
8.548,-2.28,2.34,-6.27,7.07
8.558,-3.57,1.06,-6.35,7.36
8.568,-4.39,-0.13,-5.15,6.77
8.578,-4.51,-0.84,-3.50,5.77
8.588,-3.71,-0.89,-2.09,4.35
8.598,-2.54,-0.23,-1.21,2.83
8.608,-1.23,0.43,-0.94,1.61
8.618,-0.11,0.96,-0.98,1.37
8.629,0.89,1.08,-0.90,1.67
8.639,1.61,0.90,-0.72,1.98
8.649,1.99,0.86,-0.55,2.23
8.659,2.02,1.03,-0.50,2.33
8.669,1.35,1.17,-0.52,1.86
8.679,0.39,1.05,-0.56,1.25
8.689,-0.22,1.01,-0.52,1.16
8.699,-0.29,1.21,-0.48,1.33
8.709,-0.71,0.62,-0.69,1.17
8.719,-0.87,-0.29,-0.80,1.22
8.729,-0.73,-1.04,-0.77,1.49
8.739,-0.34,-1.72,-0.80,1.92
8.749,0.22,-2.11,-0.80,2.27
8.759,0.39,-2.55,-0.78,2.70
8.769,0.35,-2.94,-0.69,3.04
8.779,0.04,-3.15,-0.61,3.21
8.789,-0.34,-3.16,-0.54,3.22
8.799,-0.71,-2.97,-0.35,3.07
8.809,-1.12,-2.61,-0.01,2.84
8.820,-1.41,-2.14,0.33,2.58
8.830,-1.47,-1.77,0.54,2.37
8.840,-1.38,-1.56,0.57,2.16
8.850,-1.19,-1.36,0.45,1.86
8.860,-0.88,-1.21,0.27,1.52
8.870,-0.53,-1.13,0.16,1.26
8.880,-0.33,-1.13,0.24,1.20
8.890,-0.17,-1.13,0.32,1.19
8.900,0.01,-1.03,0.28,1.07
8.910,0.16,-0.87,0.40,0.97
8.920,0.32,-0.81,0.80,1.18
8.930,0.62,-0.88,1.25,1.65
8.940,0.94,-0.91,1.58,2.05
8.950,1.08,-0.98,1.59,2.15
8.960,0.98,-1.14,1.31,1.99
8.970,0.89,-1.22,1.13,1.89
8.981,0.94,-0.98,1.51,2.03
8.991,0.83,-0.60,1.73,2.01
9.001,0.60,-0.21,1.63,1.75
9.011,0.62,0.39,1.36,1.55
9.021,0.28,1.07,1.13,1.59
9.031,-0.56,1.41,0.86,1.75
9.041,-0.96,1.23,1.21,1.97
9.051,-0.36,0.83,2.22,2.39
9.061,0.90,0.70,2.95,3.16
9.071,1.90,0.92,2.97,3.64
9.081,2.22,1.71,2.35,3.66
9.091,1.95,3.16,1.51,4.01
9.101,1.47,4.68,1.22,5.06
9.111,0.80,6.24,1.29,6.43
9.121,-0.26,7.37,0.82,7.42
9.131,-1.48,7.06,-0.11,7.21
9.142,-2.42,5.01,-0.66,5.60
9.151,-2.57,2.55,-0.17,3.63
9.162,-1.96,1.06,0.50,2.28
9.172,-1.36,0.13,0.75,1.56
9.182,-0.70,-0.68,0.78,1.25
9.192,0.03,-1.47,0.53,1.57
9.202,0.63,-2.04,-0.11,2.13
9.212,0.89,-2.20,-1.12,2.63
9.222,0.91,-1.97,-2.31,3.17
9.232,0.84,-1.66,-3.12,3.63
9.242,0.45,-1.49,-3.24,3.59
9.252,-0.55,-1.16,-3.20,3.45
9.262,-1.65,-0.78,-3.09,3.59
9.272,-2.44,-0.43,-2.82,3.76
9.282,-2.73,-0.30,-2.49,3.71
9.292,-2.50,-0.30,-2.16,3.32
9.302,-2.16,-0.42,-1.78,2.83
9.312,-1.88,-0.63,-1.40,2.43
9.322,-1.43,-0.83,-1.01,1.94
9.332,-0.86,-1.18,-0.74,1.64
9.343,-0.56,-1.61,-0.56,1.80
9.353,-0.36,-1.75,-0.52,1.86
9.363,-0.15,-1.69,-0.53,1.78
9.373,0.05,-1.59,-0.57,1.69
9.383,0.34,-1.50,-0.59,1.65
9.393,0.63,-1.42,-0.50,1.63
9.403,0.93,-1.36,-0.37,1.68
9.413,1.24,-1.31,-0.20,1.82
9.423,1.51,-1.20,-0.08,1.93
9.433,1.75,-1.16,-0.04,2.10
9.443,1.86,-1.13,0.12,2.18
9.453,1.85,-1.03,0.36,2.14
9.463,1.68,-0.88,0.46,1.95
9.473,1.52,-0.79,0.58,1.81
9.483,1.37,-0.81,0.79,1.78
9.493,1.26,-0.96,1.00,1.87
9.503,1.24,-1.10,1.17,2.03
9.514,1.22,-1.35,1.26,2.21
9.524,1.21,-1.60,1.31,2.40
9.534,1.17,-1.71,1.24,2.41
9.544,1.18,-1.72,1.13,2.37
9.554,1.25,-1.57,0.85,2.18
9.564,1.24,-1.31,0.48,1.87
9.574,1.18,-0.90,0.21,1.49
9.584,1.22,-0.26,0.16,1.26
9.594,1.29,0.30,0.32,1.37
9.604,1.23,0.75,0.36,1.48
9.614,1.08,1.00,0.25,1.50
9.624,0.92,0.72,0.53,1.28
9.634,0.73,0.45,1.12,1.41
9.644,0.95,0.35,1.72,1.99
9.654,1.67,0.13,2.40,2.93
9.664,2.27,0.08,2.78,3.59
9.674,2.46,0.25,2.54,3.54
9.684,2.12,0.74,1.86,2.92
9.695,0.91,1.82,1.21,2.37
9.704,-0.48,2.69,1.52,3.12
9.715,-1.00,3.33,2.45,4.25
9.725,-1.58,3.82,2.34,4.75
9.735,-1.96,4.07,1.09,4.65
9.745,-1.63,4.50,-0.58,4.82
9.755,-1.06,4.92,-2.35,5.55
9.765,-0.88,4.56,-4.29,6.32
9.775,-1.55,3.62,-5.90,7.09
9.785,-2.76,2.68,-6.72,7.75
9.795,-3.86,1.21,-6.17,7.38
9.805,-4.42,-0.53,-4.64,6.43
9.815,-4.38,-1.80,-3.05,5.63
9.825,-3.65,-2.12,-1.64,4.53
9.835,-2.29,-1.64,-0.75,2.92
9.845,-0.64,-0.53,-0.48,0.96
9.855,0.86,0.21,-0.45,1.00
9.866,1.77,0.47,-0.48,1.89
9.876,1.99,0.58,-0.38,2.10
9.886,1.93,0.77,-0.32,2.10
9.896,1.55,0.99,-0.28,1.86
9.906,0.81,1.06,-0.27,1.36
9.916,0.23,1.10,-0.34,1.17
9.926,0.23,1.41,-0.37,1.48
9.936,-0.21,1.12,-0.53,1.25
9.946,-0.53,0.23,-0.89,1.07
9.956,-0.42,-0.55,-1.07,1.28
9.966,-0.11,-1.02,-0.93,1.39
9.976,0.13,-1.51,-0.77,1.70
9.986,0.09,-2.10,-0.55,2.17
9.996,-0.06,-2.48,-0.27,2.50
10.006,-0.10,-2.81,-0.04,2.81
10.016,-0.33,-3.00,0.10,3.02
10.026,-0.64,-3.06,0.09,3.13
10.036,-0.84,-2.88,0.23,3.00
10.046,-0.95,-2.54,0.43,2.75
10.057,-1.02,-2.25,0.60,2.54
10.067,-0.95,-1.99,0.68,2.31
10.077,-0.78,-1.82,0.62,2.07
10.087,-0.48,-1.83,0.65,2.00
10.097,-0.17,-1.89,0.73,2.03
10.107,0.11,-1.91,0.73,2.05
10.117,0.30,-1.85,0.73,2.01
10.127,0.24,-1.69,0.78,1.88
10.137,0.04,-1.49,0.85,1.72
10.147,-0.11,-1.26,0.93,1.57
10.157,-0.11,-1.03,1.05,1.47
10.167,0.00,-0.65,1.06,1.25
10.177,0.11,-0.26,0.90,0.94
10.187,0.16,0.03,1.01,1.02
10.197,0.24,0.31,1.34,1.40
10.207,0.27,0.67,1.33,1.51
10.217,0.17,0.88,1.68,1.91
10.227,0.51,1.09,1.85,2.21
10.237,0.75,1.13,1.76,2.22
10.248,0.26,1.00,1.50,1.82
10.258,-0.20,0.50,1.71,1.79
10.268,0.08,-0.22,2.37,2.38
10.278,0.95,-0.31,2.88,3.04
10.288,2.09,0.15,3.31,3.91
10.298,3.08,0.92,3.49,4.75
10.308,3.50,2.23,2.87,5.05
10.318,3.13,4.24,1.89,5.60
10.328,2.25,6.42,1.59,6.99
10.338,0.54,7.62,1.22,7.73
10.348,-2.10,6.38,-0.07,6.72
10.358,-3.36,4.06,-1.66,5.53
10.368,-3.09,2.52,-2.04,4.48
10.378,-3.02,1.91,-1.81,4.01
10.388,-3.27,1.25,-1.44,3.78
10.399,-2.80,0.23,-0.75,2.91
10.409,-1.48,-0.66,-0.39,1.67
10.419,-0.11,-1.40,-0.88,1.66
10.429,0.83,-1.80,-2.02,2.83
10.439,1.43,-2.02,-2.91,3.81
10.449,1.61,-2.01,-3.02,3.96
10.459,0.86,-1.59,-2.90,3.42
10.469,-0.35,-0.87,-2.61,2.77
10.479,-1.44,-0.17,-2.26,2.68
10.489,-2.41,0.22,-2.00,3.14
10.499,-3.01,0.19,-1.78,3.50
10.509,-3.10,-0.15,-1.63,3.50
10.519,-2.78,-0.65,-1.55,3.25
10.529,-2.21,-1.19,-1.35,2.85
10.539,-1.54,-1.52,-1.14,2.45
10.549,-0.89,-1.68,-1.03,2.16
10.559,-0.35,-1.82,-0.95,2.08
10.569,0.00,-1.77,-0.91,1.99
10.579,0.17,-1.64,-0.92,1.89
10.590,0.27,-1.42,-0.91,1.71
10.600,0.33,-1.30,-0.82,1.57
10.610,0.42,-1.25,-0.76,1.53
10.620,0.54,-1.27,-0.70,1.55
10.630,0.64,-1.32,-0.55,1.57
10.640,0.81,-1.28,-0.29,1.54
10.650,1.05,-1.11,-0.02,1.53
10.660,1.36,-0.97,0.12,1.67
10.670,1.53,-0.82,0.14,1.74
10.680,1.62,-0.62,0.08,1.73
10.690,1.50,-0.46,0.12,1.57
10.700,1.27,-0.55,0.22,1.41
10.710,1.07,-0.76,0.41,1.38
10.720,0.97,-0.98,0.70,1.54
10.730,1.03,-1.35,0.98,1.96
10.740,1.20,-1.44,0.99,2.11
10.750,1.17,-1.27,0.86,1.93
10.760,1.03,-1.01,0.81,1.66
10.771,0.92,-0.79,0.89,1.50
10.781,1.05,-0.64,1.18,1.70
10.791,1.51,-0.50,1.41,2.13
10.801,1.95,-0.35,1.30,2.37
10.811,2.27,-0.16,0.85,2.43
10.821,2.49,0.18,0.37,2.53
10.831,2.51,0.51,0.26,2.57
10.841,2.19,0.61,0.73,2.39
10.851,1.90,0.66,1.36,2.43
10.861,1.93,0.60,1.95,2.81
10.871,2.17,0.51,2.12,3.07
10.881,1.91,0.47,1.85,2.70
10.891,1.20,0.52,1.51,2.00
10.901,0.42,0.52,1.72,1.85
10.912,-0.44,0.47,2.41,2.50
10.921,-1.41,0.70,2.71,3.14
10.932,-2.51,1.61,2.24,3.73
10.942,-2.97,2.62,2.21,4.54
10.952,-2.53,3.33,2.41,4.82
10.962,-2.25,3.66,1.17,4.45
10.972,-1.96,3.52,-1.03,4.16
10.982,-0.90,3.39,-2.59,4.36
10.992,-0.13,3.01,-3.68,4.75
11.002,-0.21,1.71,-4.66,4.97
11.012,-0.97,0.53,-5.35,5.46
11.022,-1.91,-0.06,-5.33,5.66
11.032,-2.58,-0.23,-4.42,5.12
11.042,-2.33,-0.30,-3.29,4.05
11.052,-1.59,-0.14,-2.28,2.78
11.062,-0.80,0.62,-1.70,1.98
11.072,0.12,1.33,-1.46,1.98
11.082,1.01,1.38,-1.14,2.05
11.092,1.78,1.11,-0.94,2.30
11.102,2.24,0.91,-0.72,2.52
11.112,2.12,1.01,-0.35,2.37
11.122,1.54,1.04,-0.11,1.86
11.132,0.53,0.93,-0.31,1.12
11.143,-0.23,0.96,-0.56,1.13
11.153,-0.24,1.31,-0.53,1.44
11.163,-0.69,0.58,-0.77,1.19
11.173,-0.96,-0.69,-0.95,1.52
11.183,-0.71,-1.40,-0.88,1.80
11.193,-0.19,-2.00,-0.78,2.15
11.203,0.29,-2.49,-0.76,2.62
11.213,0.55,-2.66,-0.77,2.82
11.223,0.43,-2.64,-0.72,2.77
11.233,0.29,-2.70,-0.59,2.77
11.243,0.01,-2.78,-0.45,2.82
11.253,-0.37,-2.77,-0.29,2.81
11.263,-0.72,-2.60,-0.01,2.70
11.273,-1.05,-2.31,0.29,2.55
11.283,-1.18,-1.91,0.29,2.26
11.294,-1.24,-1.55,0.28,2.01
11.304,-1.19,-1.33,0.36,1.82
11.314,-0.99,-1.32,0.51,1.72
11.324,-0.68,-1.52,0.73,1.82
11.334,-0.24,-1.76,0.88,1.98
11.344,0.26,-1.92,0.86,2.12
11.354,0.64,-1.92,0.75,2.16
11.364,0.94,-1.70,0.75,2.08
11.374,1.23,-1.34,0.92,2.04
11.384,1.50,-0.95,1.15,2.12
11.394,1.67,-0.79,1.53,2.39
11.404,1.82,-0.47,1.59,2.47
11.414,1.42,0.24,0.84,1.67
11.424,0.84,0.49,1.03,1.42
11.434,0.18,0.60,1.38,1.51
11.444,-0.22,0.71,1.70,1.85
11.454,-0.06,0.79,2.21,2.35
11.464,0.77,0.86,2.19,2.48
11.474,1.33,0.90,2.04,2.60
11.484,1.29,0.76,1.81,2.35
11.495,1.00,0.45,1.82,2.13
11.504,1.30,0.47,2.43,2.80
11.515,1.98,1.17,2.85,3.66
11.525,2.05,2.82,2.16,4.11
11.535,1.32,5.01,1.02,5.28
11.545,0.29,7.15,0.63,7.18
11.555,-1.42,8.32,0.39,8.45
11.565,-3.29,7.78,-0.45,8.46
11.575,-4.15,5.88,-1.17,7.29
11.585,-3.81,3.29,-1.32,5.20
11.595,-2.75,1.06,-0.91,3.09
11.605,-1.95,-0.68,-0.52,2.13
11.615,-1.22,-2.01,-0.34,2.38
11.625,-0.31,-2.72,-0.16,2.74
11.635,0.42,-2.79,-0.71,2.91
11.646,0.78,-2.46,-1.85,3.18
11.655,0.82,-1.84,-2.54,3.24
11.666,0.42,-1.08,-2.82,3.05
11.676,-0.55,-0.31,-2.81,2.88
11.686,-1.67,0.20,-2.81,3.28
11.696,-2.57,0.29,-2.79,3.81
11.706,-3.02,0.07,-2.66,4.02
11.716,-2.86,-0.18,-2.25,3.64
11.726,-2.41,-0.29,-1.80,3.02
11.736,-1.73,-0.57,-1.33,2.26
11.746,-1.00,-1.03,-0.86,1.67
11.756,-0.48,-1.41,-0.49,1.57
11.766,-0.01,-1.73,-0.32,1.76
11.776,0.36,-1.93,-0.35,1.99
11.786,0.53,-1.87,-0.54,2.02
11.796,0.51,-1.67,-0.69,1.87
11.806,0.44,-1.51,-0.72,1.73
11.816,0.42,-1.54,-0.76,1.77
11.826,0.46,-1.61,-0.78,1.84
11.837,0.39,-1.47,-0.68,1.67
11.847,0.36,-1.29,-0.49,1.43
11.857,0.40,-1.19,-0.26,1.28
11.867,0.54,-1.07,-0.02,1.19
11.877,0.60,-0.90,0.20,1.09
11.887,0.68,-0.69,0.30,1.01
11.897,0.75,-0.55,0.36,0.99
11.907,0.96,-0.41,0.38,1.11
11.917,1.30,-0.43,0.47,1.45
11.927,1.51,-0.57,0.65,1.74
11.937,1.63,-0.81,0.77,1.98
11.947,1.71,-1.16,0.84,2.23
11.957,1.62,-1.45,0.93,2.37
11.967,1.36,-1.54,1.00,2.29
11.977,1.19,-1.35,1.02,2.07
11.987,1.13,-0.92,0.87,1.70
11.998,1.11,-0.54,0.59,1.37
12.007,1.06,-0.41,0.37,1.19
12.018,1.08,-0.29,0.43,1.19
12.028,1.30,0.04,0.59,1.43
12.038,1.59,0.45,0.62,1.76
12.048,1.56,0.79,0.63,1.86
12.058,1.31,0.90,0.87,1.81
12.068,1.14,0.73,1.50,2.02
12.078,1.37,0.49,2.22,2.66
12.088,1.73,0.29,2.64,3.17
12.098,1.95,0.18,2.73,3.36
12.108,2.00,0.26,2.62,3.31
12.118,1.63,0.56,2.36,2.92
12.128,0.59,1.33,1.60,2.16
12.138,-0.65,1.97,1.22,2.41
12.148,-1.02,2.25,1.74,3.02
12.158,-1.26,2.70,1.76,3.46
12.168,-2.05,3.00,0.52,3.67
12.178,-2.26,3.24,-1.33,4.17
12.188,-1.60,3.25,-3.03,4.72
12.199,-1.05,2.35,-4.28,4.99
12.209,-1.40,0.97,-5.16,5.44
12.219,-2.43,-0.27,-5.38,5.91
12.229,-3.29,-1.21,-4.45,5.66
12.239,-3.65,-1.46,-3.05,4.97
12.249,-3.28,-0.71,-1.99,3.90
12.259,-2.28,0.18,-1.26,2.61
12.269,-1.35,1.30,-1.06,2.16
12.279,-0.20,1.96,-0.83,2.14
12.289,0.89,1.86,-0.60,2.15
12.299,1.62,1.68,-0.53,2.40
12.309,2.07,1.75,-0.60,2.78
12.319,2.11,1.98,-0.64,2.96
12.329,1.30,1.95,-0.54,2.40
12.340,0.51,1.67,-0.64,1.86
12.349,0.16,1.64,-0.89,1.87
12.359,-0.35,1.09,-1.09,1.58
12.370,-0.69,0.18,-1.00,1.23
12.380,-0.76,-0.58,-0.88,1.30
12.390,-0.56,-1.05,-0.77,1.42
12.400,-0.32,-1.51,-0.73,1.71
12.410,0.04,-2.14,-0.60,2.22
12.420,0.16,-2.58,-0.45,2.63
12.430,0.01,-2.74,-0.39,2.77
12.440,-0.24,-2.78,-0.39,2.82
12.450,-0.59,-2.77,-0.30,2.85
12.460,-0.98,-2.61,-0.09,2.79
12.470,-1.42,-2.27,0.24,2.69
12.480,-1.72,-1.83,0.60,2.58
12.490,-1.73,-1.47,0.72,2.39
12.500,-1.60,-1.25,0.55,2.11
12.510,-1.40,-1.35,0.35,1.98
12.520,-1.14,-1.73,0.32,2.09
12.530,-0.78,-2.11,0.42,2.29
12.541,-0.29,-2.37,0.64,2.47
12.550,0.13,-2.42,0.93,2.60
12.561,0.59,-2.27,1.22,2.64
12.571,1.03,-1.93,1.40,2.60
12.581,1.39,-1.55,1.43,2.53
12.591,1.60,-1.27,1.32,2.43
12.601,1.42,-0.82,0.87,1.86
12.611,0.93,-0.33,0.36,1.05
12.621,0.20,0.01,0.34,0.40
12.631,-0.46,0.28,0.65,0.85
12.641,-0.74,0.47,1.18,1.47
12.651,-0.77,0.54,1.75,1.98
12.661,-0.33,0.63,1.91,2.04
12.671,0.25,1.06,1.64,1.97
12.681,0.21,1.48,1.31,1.99
12.691,-0.10,1.44,1.32,1.96
12.701,-0.00,0.74,1.82,1.97
12.711,0.90,0.18,2.54,2.70
12.721,2.02,0.13,3.06,3.67
12.732,2.85,0.50,3.19,4.31
12.742,3.21,1.60,2.67,4.47
12.752,2.99,3.49,1.82,4.95
12.762,2.33,5.35,1.49,6.02
12.772,1.28,6.44,1.40,6.72
12.782,-0.11,6.39,0.50,6.41
12.792,-1.75,5.38,-0.78,5.71
12.802,-2.80,4.16,-1.27,5.17
12.812,-3.14,3.17,-1.04,4.59
12.822,-3.35,1.80,-0.68,3.87
12.832,-3.03,0.15,-0.47,3.07
12.842,-1.89,-1.26,-0.43,2.31
12.852,-0.28,-2.19,-0.72,2.32
12.862,0.85,-2.60,-1.47,3.11
12.872,1.32,-2.46,-2.54,3.78
12.882,1.42,-2.20,-3.18,4.12
12.892,0.79,-1.75,-3.12,3.67
12.903,-0.55,-0.90,-2.83,3.02
12.913,-1.91,-0.06,-2.40,3.07
12.923,-2.92,0.45,-2.03,3.58
12.933,-3.43,0.49,-1.76,3.89
12.943,-3.29,0.02,-1.59,3.65
12.953,-2.70,-0.49,-1.47,3.12
12.963,-1.95,-0.85,-1.35,2.52
12.973,-1.25,-1.08,-1.20,2.04
12.983,-0.56,-1.34,-0.97,1.75
12.993,-0.12,-1.52,-0.71,1.68
13.003,0.24,-1.57,-0.61,1.70
13.013,0.55,-1.53,-0.71,1.78
13.023,0.82,-1.46,-0.85,1.88
13.033,0.92,-1.37,-0.94,1.90
13.043,0.92,-1.36,-0.94,1.89
13.053,0.78,-1.44,-0.92,1.88
13.063,0.65,-1.39,-0.90,1.79
13.073,0.63,-1.31,-0.92,1.72
13.084,0.62,-1.07,-0.92,1.54
13.094,0.67,-0.75,-0.88,1.34
13.104,0.68,-0.44,-0.69,1.06
13.114,0.73,-0.28,-0.30,0.84
13.124,0.77,-0.33,0.12,0.85
13.134,0.84,-0.57,0.44,1.10
13.144,0.88,-0.94,0.62,1.44
13.154,0.73,-1.31,0.67,1.64
13.164,0.63,-1.46,0.72,1.75
13.174,0.75,-1.57,0.99,2.01
13.184,1.09,-1.47,1.38,2.29
13.194,1.37,-1.18,1.55,2.38
13.204,1.56,-0.92,1.37,2.27
13.214,1.70,-0.64,0.95,2.05
13.224,1.69,-0.40,0.50,1.81
13.234,1.50,-0.14,0.05,1.51
13.244,1.20,0.01,-0.03,1.20
13.254,0.91,0.12,0.16,0.93
13.265,0.75,0.32,0.32,0.88
13.275,0.71,0.27,0.60,0.97
13.285,0.80,0.10,1.08,1.35
13.295,1.04,-0.05,1.57,1.88
13.305,1.40,-0.09,1.95,2.40
13.315,1.73,-0.04,1.99,2.63
13.325,1.80,-0.02,1.78,2.53
13.335,1.65,0.14,1.65,2.34
13.345,1.22,0.56,1.54,2.05
13.355,0.47,1.34,1.21,1.87
13.365,-0.26,2.11,1.14,2.42
13.375,-0.53,2.65,1.77,3.23
13.385,-0.82,3.02,2.02,3.73
13.395,-1.10,3.06,1.37,3.53
13.405,-0.90,2.99,0.52,3.17
13.415,-0.42,3.12,-0.07,3.14
13.425,0.24,3.08,-1.07,3.27
13.435,0.46,2.46,-2.60,3.61
13.446,-0.43,1.67,-4.18,4.52
13.456,-1.93,0.86,-5.04,5.46
13.466,-3.04,-0.15,-4.93,5.79
13.476,-3.54,-0.98,-4.26,5.62
13.486,-3.17,-1.29,-3.21,4.70
13.496,-2.32,-0.96,-2.09,3.27
13.506,-1.35,-0.10,-1.30,1.88
13.516,-0.29,0.67,-0.78,1.07
13.526,0.58,1.11,-0.36,1.30
13.536,0.94,1.35,-0.33,1.68
13.546,1.05,1.46,-0.56,1.88
13.556,0.89,1.59,-0.69,1.95
13.566,0.48,1.63,-0.55,1.78
13.576,0.03,1.39,-0.35,1.43
13.586,0.02,1.40,-0.20,1.42
13.596,0.21,1.55,-0.17,1.58
13.606,-0.07,0.70,-0.49,0.86
13.617,-0.16,-0.30,-0.80,0.87
13.626,-0.16,-0.83,-0.72,1.11
13.637,-0.22,-1.26,-0.56,1.39
13.647,-0.31,-1.72,-0.51,1.82
13.657,-0.28,-2.28,-0.33,2.32
13.667,-0.45,-2.69,0.03,2.73
13.677,-0.72,-2.84,0.29,2.95
13.687,-0.73,-2.89,0.25,2.99
13.697,-0.67,-2.74,0.18,2.82
13.707,-0.66,-2.43,0.05,2.52
13.717,-0.69,-2.12,-0.02,2.23
13.727,-0.73,-1.83,0.12,1.97
13.737,-0.62,-1.63,0.28,1.76
13.747,-0.43,-1.59,0.47,1.71
13.757,-0.16,-1.67,0.53,1.77
13.767,0.13,-1.82,0.46,1.88
13.777,0.17,-1.90,0.28,1.92
13.787,-0.02,-1.90,0.24,1.92
13.798,-0.15,-1.80,0.47,1.87
13.807,-0.13,-1.70,1.01,1.98
13.818,0.12,-1.62,1.61,2.29
13.828,0.52,-1.45,1.94,2.47
13.838,0.92,-1.18,1.74,2.29
13.849,1.24,-0.88,1.23,1.95
13.858,1.23,-0.65,0.83,1.62
13.868,1.08,-0.40,0.71,1.35
13.878,0.98,-0.23,1.29,1.63
13.888,0.77,-0.10,1.64,1.81
13.898,0.47,0.23,1.57,1.65
13.908,0.39,0.77,1.31,1.57
13.918,0.14,1.41,1.56,2.10
13.928,-0.44,1.93,1.76,2.65
13.938,-0.55,1.96,2.21,3.00
13.948,0.19,1.60,3.06,3.45
13.958,1.68,1.73,3.55,4.29
13.969,2.92,2.97,3.21,5.26
13.979,3.36,4.68,2.26,6.18
13.989,3.07,5.83,1.68,6.80
13.999,2.18,6.53,1.50,7.05
14.009,0.77,6.60,0.83,6.69
14.019,-1.15,5.84,-0.17,5.96
14.029,-2.70,4.16,-0.65,5.01
14.039,-2.92,2.14,-0.50,3.65
14.049,-2.35,0.30,-0.15,2.37
14.059,-2.04,-1.19,-0.01,2.36
14.069,-1.57,-2.11,-0.00,2.63
14.079,-0.54,-2.51,-0.23,2.58
14.089,0.60,-2.46,-0.53,2.58
14.099,1.12,-1.93,-1.46,2.66
14.109,1.16,-1.46,-2.56,3.17
14.119,0.85,-1.16,-3.05,3.37
14.129,-0.03,-0.69,-3.21,3.28
14.139,-1.10,-0.26,-3.03,3.23
14.149,-1.95,-0.04,-2.65,3.29
14.160,-2.52,-0.02,-2.32,3.43
14.170,-2.64,-0.07,-2.00,3.31
14.180,-2.56,-0.17,-1.70,3.08
14.190,-2.45,-0.43,-1.34,2.82
14.200,-2.13,-0.83,-1.13,2.55
14.210,-1.69,-1.40,-1.09,2.45
14.220,-1.27,-1.93,-1.09,2.56
14.230,-0.88,-2.10,-1.04,2.50
14.240,-0.49,-2.05,-0.93,2.30
14.250,-0.10,-1.89,-0.85,2.08
14.260,0.23,-1.77,-0.80,1.95
14.270,0.46,-1.68,-0.72,1.89
14.280,0.54,-1.64,-0.67,1.85
14.290,0.65,-1.52,-0.67,1.78
14.300,0.85,-1.38,-0.64,1.74
14.310,1.10,-1.19,-0.58,1.72
14.320,1.27,-1.00,-0.48,1.69
14.331,1.34,-0.77,-0.23,1.56
14.341,1.42,-0.61,0.16,1.55
14.351,1.45,-0.72,0.59,1.72
14.361,1.44,-0.86,1.06,1.98
14.371,1.60,-1.06,1.35,2.35
14.381,1.71,-1.14,1.35,2.45
14.391,1.63,-1.05,1.15,2.25
14.401,1.44,-1.02,0.87,1.97
14.411,1.19,-1.03,0.61,1.69
14.421,1.01,-1.08,0.51,1.57
14.431,0.91,-1.03,0.55,1.48
14.441,0.95,-0.86,0.51,1.38
14.451,1.09,-0.60,0.32,1.29
14.461,1.22,-0.23,0.20,1.26
14.471,1.09,0.04,0.33,1.14
14.481,0.81,0.35,0.58,1.06
14.491,0.78,0.72,0.75,1.30
14.501,0.94,0.91,0.91,1.59
14.511,1.01,0.86,1.18,1.78
14.522,1.27,0.74,1.52,2.11
14.532,1.69,0.68,2.10,2.78
14.542,2.08,0.65,2.48,3.30
14.552,2.09,0.40,2.56,3.33
14.562,1.72,0.25,2.35,2.92
14.572,1.05,0.34,2.23,2.49
14.582,-0.11,1.15,1.83,2.16
14.592,-1.39,2.15,1.64,3.04
14.602,-1.68,2.70,2.20,3.87
14.612,-1.49,3.46,2.21,4.37
14.622,-1.78,3.91,0.66,4.35
14.632,-1.50,4.02,-1.68,4.61
14.642,-0.59,3.82,-3.62,5.30
14.652,-0.37,2.64,-4.92,5.60
14.662,-1.37,1.21,-5.88,6.15
14.672,-2.80,0.38,-6.14,6.76
14.683,-3.53,-0.14,-5.13,6.23
14.693,-3.18,-0.69,-3.52,4.80
14.703,-2.28,-0.73,-2.11,3.19
14.713,-1.24,0.11,-1.45,1.91
14.723,0.09,0.84,-1.32,1.57
14.733,1.18,1.06,-1.18,1.98
14.743,1.86,1.03,-1.02,2.35
14.753,1.95,0.86,-0.61,2.21
14.763,1.80,0.82,-0.27,2.00
14.773,1.18,0.86,-0.22,1.48
14.783,0.32,0.84,-0.45,1.00
14.793,-0.08,1.31,-0.64,1.46
14.803,-0.80,0.98,-1.02,1.62
14.813,-1.19,-0.18,-1.07,1.61
14.823,-0.90,-0.98,-0.67,1.49
14.833,-0.52,-1.60,-0.40,1.73
14.843,-0.12,-2.11,-0.30,2.14
14.853,0.32,-2.53,-0.23,2.56
14.864,0.36,-2.68,-0.07,2.71
14.874,0.24,-2.75,-0.02,2.76
14.884,0.03,-2.84,-0.03,2.84
14.894,-0.19,-2.80,0.11,2.81
14.904,-0.45,-2.57,0.30,2.63
14.914,-0.79,-2.12,0.36,2.29
14.924,-1.16,-1.51,0.42,1.95
14.934,-1.32,-0.93,0.46,1.68
14.944,-1.42,-0.52,0.50,1.59
14.954,-1.36,-0.34,0.44,1.47
14.964,-1.19,-0.45,0.38,1.33
14.974,-1.00,-0.93,0.45,1.44
14.984,-0.74,-1.57,0.66,1.85
14.994,-0.29,-2.12,0.93,2.34
15.004,0.22,-2.42,1.15,2.68
15.014,0.70,-2.52,1.33,2.94
15.024,1.15,-2.51,1.54,3.16
15.034,1.49,-2.26,1.47,3.08
15.044,1.65,-1.73,1.03,2.60
15.055,1.40,-1.18,0.88,2.03
15.065,0.86,-0.66,0.85,1.38
15.075,0.32,-0.19,1.22,1.27
15.085,-0.14,0.11,1.47,1.48
15.095,-0.01,0.46,1.71,1.77
15.105,0.49,0.88,1.81,2.07
15.115,0.36,1.47,1.73,2.30
15.125,-0.25,2.03,1.69,2.65
15.135,-0.28,1.74,2.12,2.76
15.145,0.90,1.20,2.74,3.12
15.155,2.59,1.25,3.16,4.27
15.165,4.02,2.08,3.31,5.61
15.175,4.61,3.58,2.66,6.41
15.185,4.29,5.50,2.08,7.28
15.195,3.39,7.08,2.21,8.16
15.205,1.66,7.58,1.89,7.99
15.215,-1.15,6.43,0.56,6.55
15.225,-2.95,4.75,-0.89,5.66
15.235,-3.26,3.33,-1.40,4.86
15.246,-3.24,1.77,-1.20,3.89
15.256,-2.84,-0.02,-0.89,2.98
15.266,-1.86,-1.38,-0.61,2.40
15.276,-0.58,-2.14,-0.79,2.36
15.286,0.45,-2.48,-1.71,3.05
15.296,1.05,-2.27,-2.72,3.70
15.306,0.95,-1.87,-2.92,3.59
15.316,-0.10,-1.32,-2.64,2.96
15.326,-1.46,-0.61,-2.40,2.87
15.336,-2.60,-0.06,-2.19,3.40
15.346,-3.34,0.22,-1.92,3.86
15.356,-3.65,0.14,-1.67,4.01
15.366,-3.33,-0.38,-1.48,3.67
15.376,-2.59,-0.98,-1.39,3.09
15.386,-1.63,-1.43,-1.22,2.49
15.397,-0.72,-1.81,-1.16,2.27
15.407,-0.21,-2.08,-1.32,2.47
15.417,-0.07,-2.26,-1.50,2.71
15.427,0.06,-2.34,-1.57,2.81
15.437,0.12,-2.44,-1.47,2.85
15.447,0.12,-2.50,-1.36,2.85
15.457,0.13,-2.30,-1.17,2.58
15.467,0.22,-1.83,-0.90,2.05
15.477,0.29,-1.37,-0.70,1.57
15.487,0.40,-0.95,-0.55,1.17
15.497,0.61,-0.57,-0.45,0.95
15.507,0.87,-0.36,-0.36,1.01
15.517,1.03,-0.27,-0.16,1.08
15.527,1.28,-0.29,0.20,1.32
15.537,1.48,-0.43,0.59,1.65
15.547,1.62,-0.65,0.90,1.96
15.557,1.75,-1.03,1.04,2.28
15.567,1.70,-1.40,1.12,2.47
15.577,1.59,-1.64,1.22,2.59
15.588,1.45,-1.87,1.29,2.69
15.598,1.29,-2.03,1.30,2.73
15.608,1.21,-1.97,1.32,2.66
15.618,1.20,-1.58,1.21,2.33
15.628,1.25,-0.93,1.11,1.92
15.638,1.43,-0.34,0.96,1.75
15.648,1.57,0.02,0.71,1.72
15.658,1.72,0.12,0.69,1.86
15.668,1.85,0.33,0.67,1.99
15.678,1.88,0.76,0.42,2.07
15.688,1.71,0.96,0.32,1.99
15.698,1.30,0.95,0.79,1.79
15.708,1.03,0.80,1.70,2.15
15.718,1.28,0.64,2.71,3.07
15.728,1.47,0.36,3.35,3.68
15.738,1.47,0.16,3.30,3.61
15.749,1.33,0.23,2.62,2.95
15.759,0.76,1.05,1.66,2.10
15.769,-0.10,1.89,1.20,2.24
15.779,-0.48,2.37,1.50,2.85
15.789,-1.33,3.23,1.57,3.83
15.799,-2.40,3.98,0.59,4.68
15.809,-2.41,4.28,-0.72,4.96
15.819,-1.61,4.25,-2.36,5.12
15.829,-1.27,3.53,-4.41,5.78
15.839,-1.86,2.14,-5.92,6.56
15.849,-2.84,0.77,-6.23,6.89
15.859,-3.23,-0.22,-5.19,6.12
15.869,-2.92,-0.79,-3.78,4.84
15.879,-1.93,-0.88,-2.33,3.16
15.889,-0.91,-0.17,-1.50,1.76
15.899,0.03,0.93,-1.25,1.56
15.909,0.88,1.40,-0.92,1.89
15.919,1.53,1.34,-0.63,2.13
15.929,1.59,1.34,-0.38,2.11
15.940,1.41,1.53,-0.14,2.09
15.950,1.04,1.60,0.00,1.91
15.960,0.32,1.40,-0.08,1.44
15.970,0.07,1.48,-0.23,1.50
15.980,0.34,1.49,-0.36,1.57
15.990,0.01,0.22,-0.70,0.74
16.000,-0.11,-0.83,-0.82,1.17
16.010,0.08,-1.21,-0.75,1.43
16.020,0.18,-1.37,-0.75,1.58
16.030,0.17,-1.56,-0.66,1.70
16.040,0.16,-1.92,-0.58,2.01
16.050,0.01,-2.31,-0.56,2.38
16.060,-0.37,-2.59,-0.56,2.68
16.070,-0.81,-2.74,-0.46,2.90
16.080,-1.22,-2.91,-0.36,3.17
16.090,-1.64,-2.93,-0.11,3.36
16.101,-1.89,-2.79,0.18,3.38
16.110,-1.91,-2.59,0.39,3.25
16.121,-1.77,-2.39,0.54,3.02
16.131,-1.48,-2.25,0.55,2.75
16.141,-1.08,-2.20,0.40,2.48
16.151,-0.77,-2.22,0.23,2.36
16.161,-0.56,-2.36,0.08,2.42
16.171,-0.26,-2.40,0.06,2.42
16.181,0.03,-2.37,0.46,2.41
16.191,0.37,-2.29,1.08,2.56
16.201,0.84,-2.04,1.43,2.63
16.211,1.24,-1.70,1.53,2.60
16.221,1.41,-1.38,1.53,2.50
16.231,1.33,-0.63,1.00,1.78
16.241,0.95,0.15,0.86,1.29
16.251,0.47,0.70,1.04,1.34
16.261,0.25,1.09,1.66,2.00
16.271,0.25,1.12,2.23,2.51
16.281,0.65,1.06,1.94,2.31
16.291,0.94,1.25,1.65,2.27
16.302,0.62,1.50,1.64,2.31
16.312,0.34,1.66,2.04,2.65
16.322,0.59,1.47,2.56,3.01
16.332,1.50,2.32,2.66,3.84
16.342,1.91,4.59,2.03,5.37
16.352,1.68,6.68,1.24,7.00
16.362,1.16,8.24,0.84,8.36
16.372,-0.01,9.26,0.00,9.26
16.382,-1.55,9.71,-1.18,9.90
16.392,-3.04,8.49,-1.65,9.17
16.402,-3.43,4.99,-1.02,6.14
16.412,-2.19,1.09,-0.11,2.45
16.422,-1.17,-1.99,0.06,2.31
16.432,-0.39,-4.08,0.11,4.10
16.442,0.69,-5.12,0.29,5.17
16.452,1.45,-5.15,-0.08,5.36
16.462,1.79,-4.19,-0.97,4.66
16.473,1.67,-2.72,-1.64,3.58
16.483,0.53,-1.20,-2.15,2.52
16.493,-0.94,0.01,-2.56,2.72
16.503,-2.27,0.70,-2.80,3.67
16.513,-3.32,0.87,-2.93,4.51
16.523,-3.73,0.69,-2.84,4.74
16.533,-3.50,0.28,-2.48,4.30
16.543,-2.74,-0.42,-1.95,3.39
16.553,-1.66,-1.42,-1.42,2.60
16.563,-0.67,-2.36,-0.91,2.62
16.573,-0.04,-2.77,-0.44,2.81
16.583,0.39,-2.59,-0.27,2.63
16.593,0.63,-2.19,-0.47,2.32
16.603,0.63,-1.72,-0.81,2.00
16.613,0.58,-1.58,-0.88,1.90
16.623,0.54,-1.69,-0.81,1.95
16.633,0.57,-1.71,-0.77,1.96
16.643,0.72,-1.55,-0.69,1.84
16.654,0.98,-1.41,-0.59,1.82
16.664,1.20,-1.16,-0.43,1.73
16.674,1.38,-0.92,-0.21,1.67
16.684,1.43,-0.69,-0.02,1.59
16.694,1.53,-0.51,0.19,1.62
16.704,1.53,-0.56,0.47,1.70
16.714,1.37,-0.72,0.72,1.70
16.724,1.11,-1.01,0.83,1.72
16.734,0.82,-1.36,0.84,1.80
16.744,0.70,-1.69,0.82,2.00
16.754,0.86,-1.86,0.85,2.22
16.764,1.16,-1.87,0.90,2.38
16.774,1.35,-1.67,0.91,2.33
16.784,1.47,-1.24,0.98,2.16
16.794,1.54,-0.67,1.06,1.99
16.804,1.73,-0.10,0.84,1.93
16.815,1.82,0.14,0.47,1.88
16.824,1.63,0.07,0.34,1.67
16.835,1.48,0.06,0.38,1.53
16.845,1.28,0.16,0.61,1.43
16.855,1.13,0.37,0.81,1.44
16.865,0.86,0.47,1.22,1.57
16.875,0.84,0.73,1.85,2.16
16.885,1.36,0.98,2.59,3.09
16.895,1.93,1.14,2.94,3.70
16.905,2.12,1.22,2.63,3.59
16.915,1.82,1.36,1.99,3.02
16.925,1.06,1.56,1.43,2.36
16.935,0.07,2.03,1.23,2.38
16.945,-0.99,2.40,1.62,3.06
16.955,-1.62,2.93,1.98,3.89
16.965,-1.81,3.35,1.46,4.08
16.975,-1.35,3.51,0.08,3.76
16.985,-0.51,3.37,-1.80,3.86
16.995,-0.13,2.77,-4.14,4.98
17.006,-0.77,1.79,-6.10,6.40
17.016,-2.21,0.68,-6.85,7.22
17.026,-3.44,-0.36,-5.85,6.80
17.036,-3.60,-0.88,-4.06,5.50
17.046,-3.24,-0.26,-2.85,4.32
17.056,-2.72,1.12,-1.92,3.51
17.066,-1.97,2.14,-1.18,3.14
17.076,-1.22,2.12,-0.71,2.54
17.086,-0.51,1.65,-0.62,1.84
17.096,0.21,1.27,-0.69,1.46
17.106,0.78,1.19,-0.80,1.63
17.116,1.12,1.23,-0.66,1.79
17.126,0.73,0.96,-0.61,1.35
17.136,0.17,0.61,-0.69,0.94
17.146,0.26,0.79,-0.56,1.00
17.156,-0.18,0.46,-0.85,0.98
17.167,-0.71,-0.50,-1.01,1.33
17.176,-0.85,-1.32,-0.76,1.74
17.187,-0.64,-1.97,-0.38,2.11
17.197,-0.37,-2.55,-0.13,2.58
17.207,0.06,-3.17,-0.03,3.17
17.217,0.32,-3.58,0.07,3.60
17.227,0.36,-3.73,0.18,3.75
17.237,0.23,-3.63,0.23,3.65
17.247,-0.04,-3.32,0.15,3.32
17.257,-0.35,-2.81,0.11,2.84
17.267,-0.68,-2.17,0.19,2.28
17.277,-0.82,-1.54,0.39,1.79
17.287,-0.93,-1.05,0.55,1.51
17.297,-0.87,-0.66,0.63,1.26
17.307,-0.71,-0.45,0.54,1.00
17.317,-0.58,-0.66,0.33,0.93
17.327,-0.30,-1.10,0.45,1.23
17.337,0.02,-1.59,0.78,1.77
17.348,0.29,-1.94,1.05,2.22
17.357,0.60,-2.04,1.33,2.51
17.368,0.80,-2.03,1.48,2.64
17.378,0.77,-1.94,1.40,2.52
17.388,0.81,-1.67,1.27,2.25
17.398,1.00,-1.25,1.30,2.06
17.408,0.95,-0.84,1.53,1.99
17.418,0.84,-0.55,1.85,2.10
17.428,0.80,-0.16,1.34,1.57
17.438,0.79,0.24,0.75,1.12
17.448,0.50,1.20,0.71,1.49
17.458,-0.85,2.34,0.82,2.62
17.468,-2.01,2.49,1.05,3.37
17.478,-1.73,2.10,2.33,3.58
17.488,0.14,1.96,3.62,4.12
17.498,1.94,2.78,3.74,5.05
17.508,3.04,4.58,2.71,6.13
17.518,3.49,6.50,1.90,7.62
17.529,2.88,7.97,1.85,8.67
17.539,1.40,8.26,1.50,8.51
17.549,-0.82,7.12,-0.01,7.17
17.559,-2.77,4.93,-1.09,5.76
17.569,-3.07,2.73,-1.24,4.29
17.579,-2.75,0.85,-0.52,2.92
17.589,-2.37,-0.58,0.07,2.44
17.599,-1.57,-1.66,0.24,2.29
17.609,-0.47,-2.50,-0.12,2.54
17.619,0.39,-2.98,-0.98,3.16
17.629,0.85,-2.92,-2.43,3.90
17.639,1.07,-2.81,-3.20,4.39
17.649,0.67,-2.36,-3.18,4.02
17.659,-0.35,-1.60,-2.86,3.30
17.669,-1.44,-1.03,-2.53,3.08
17.679,-2.32,-0.66,-2.45,3.44
17.689,-2.81,-0.28,-2.45,3.74
17.700,-2.77,0.04,-2.32,3.61
17.710,-2.40,0.12,-2.06,3.16
17.720,-1.84,-0.25,-1.67,2.50
17.730,-1.16,-0.90,-1.17,1.88
17.740,-0.45,-1.54,-0.73,1.77
17.750,0.06,-1.88,-0.54,1.96
17.760,0.38,-1.88,-0.50,1.98
17.770,0.53,-1.80,-0.53,1.95
17.780,0.52,-1.75,-0.61,1.93
17.790,0.41,-1.70,-0.60,1.84
17.800,0.37,-1.68,-0.53,1.79
17.810,0.41,-1.61,-0.47,1.73
17.820,0.63,-1.45,-0.46,1.64
17.830,0.86,-1.24,-0.39,1.56
17.840,1.01,-1.03,-0.25,1.46
17.850,1.07,-0.80,-0.08,1.34
17.860,1.07,-0.61,0.09,1.24
17.870,1.20,-0.53,0.22,1.33
17.880,1.36,-0.63,0.37,1.54
17.891,1.42,-0.81,0.45,1.69
17.901,1.41,-0.99,0.47,1.79
17.911,1.34,-1.21,0.46,1.87
17.921,1.37,-1.40,0.66,2.07
17.931,1.57,-1.43,1.02,2.35
17.941,1.69,-1.37,1.36,2.57
17.951,1.79,-1.34,1.39,2.63
17.961,1.83,-1.39,1.10,2.55
17.971,1.95,-1.32,0.81,2.49
17.981,2.11,-1.05,0.61,2.44
17.991,2.21,-0.62,0.54,2.36
18.001,2.17,-0.16,0.56,2.25
18.011,1.84,0.31,0.45,1.92
18.021,1.29,0.70,0.46,1.54
18.031,0.79,0.93,0.73,1.42
18.041,0.42,1.01,1.28,1.68
18.051,0.64,1.06,1.79,2.17
18.061,1.36,1.06,2.16,2.76
18.072,1.92,1.08,2.09,3.03
18.082,2.15,1.10,1.88,3.06
18.092,1.88,1.34,1.60,2.81
18.102,0.83,2.12,1.17,2.55
18.112,-0.49,2.62,1.52,3.07
18.122,-1.10,2.93,2.48,4.00
18.132,-1.77,3.70,2.06,4.59
18.142,-2.28,4.31,0.07,4.88
18.152,-2.34,4.55,-1.96,5.47
18.162,-2.26,4.20,-3.34,5.82
18.172,-2.30,3.01,-4.65,6.00
18.182,-2.78,1.08,-5.42,6.19
18.192,-3.38,-0.38,-5.30,6.30
18.202,-3.62,-1.09,-4.30,5.73
18.212,-3.09,-1.08,-3.10,4.50
18.222,-2.26,-0.46,-2.19,3.18
18.232,-1.47,0.52,-1.50,2.16
18.242,-0.59,1.21,-1.13,1.76
18.253,0.21,1.32,-0.93,1.63
18.263,0.99,0.98,-0.94,1.68
18.273,1.56,0.61,-1.07,1.99
18.283,1.85,0.56,-1.18,2.26
18.293,1.60,0.84,-1.05,2.09
18.303,0.74,1.00,-0.86,1.51
18.313,-0.42,0.77,-0.93,1.28
18.323,-0.98,0.72,-1.00,1.58
18.333,-0.99,0.90,-0.79,1.56
18.343,-1.53,0.20,-0.68,1.69
18.353,-1.74,-0.79,-0.60,2.00
18.363,-1.36,-1.50,-0.63,2.12
18.373,-0.83,-1.92,-0.58,2.17
18.383,-0.44,-2.36,-0.42,2.44
18.393,-0.17,-2.79,-0.15,2.79
18.403,-0.13,-2.96,0.01,2.96
18.414,-0.24,-2.93,-0.10,2.94
18.424,-0.37,-2.79,-0.24,2.82
18.434,-0.51,-2.58,-0.06,2.63
18.444,-0.61,-2.26,0.39,2.38
18.454,-0.76,-2.02,0.75,2.29
18.464,-0.82,-1.92,0.89,2.27
18.474,-0.53,-2.02,0.79,2.24
18.484,-0.22,-2.16,0.61,2.26
18.494,0.07,-2.13,0.53,2.20
18.504,0.26,-2.01,0.59,2.11
18.514,0.41,-1.83,0.55,1.95
18.524,0.46,-1.42,0.42,1.55
18.534,0.43,-0.95,0.58,1.19
18.544,0.24,-0.62,0.84,1.07
18.554,-0.00,-0.42,1.01,1.09
18.564,-0.21,-0.25,1.03,1.08
18.574,-0.17,0.01,1.00,1.02
18.584,0.11,0.11,1.15,1.16
18.594,0.51,-0.05,1.49,1.58
18.605,0.87,-0.27,1.83,2.05
18.615,1.16,-0.32,1.73,2.10
18.625,1.28,-0.07,1.50,1.97
18.635,1.25,0.51,1.29,1.87
18.645,0.73,1.11,1.17,1.77
18.655,-0.00,1.34,1.21,1.80
18.665,-0.22,0.93,1.82,2.05
18.675,0.40,0.71,2.64,2.76
18.685,1.31,1.13,3.08,3.53
18.695,1.78,2.16,2.70,3.89
18.705,1.66,3.68,1.90,4.46
18.715,1.20,5.29,1.34,5.59
18.725,0.05,6.70,0.64,6.74
18.735,-1.82,7.34,-0.50,7.58
18.745,-3.33,7.08,-1.08,7.90
18.755,-3.70,5.43,-0.76,6.61
18.765,-2.86,2.41,-0.32,3.75
18.775,-1.79,-0.34,0.13,1.83
18.786,-0.98,-2.16,0.41,2.40
18.796,0.11,-3.45,0.44,3.48
18.806,1.44,-4.02,0.19,4.27
18.816,2.48,-3.56,-0.16,4.35
18.826,2.52,-2.52,-1.30,3.79
18.836,1.51,-1.49,-2.81,3.52
18.846,0.15,-0.67,-3.41,3.47
18.856,-1.28,0.17,-3.37,3.61
18.866,-2.55,0.77,-3.12,4.10
18.876,-3.48,1.05,-2.73,4.54
18.886,-3.77,1.08,-2.35,4.57
18.896,-3.23,0.95,-1.93,3.88
18.906,-2.40,0.56,-1.54,2.90
18.916,-1.65,-0.04,-1.15,2.01
18.926,-0.88,-0.74,-0.66,1.33
18.936,-0.19,-1.37,-0.32,1.42
18.946,0.33,-1.80,-0.27,1.85
18.956,0.68,-1.89,-0.52,2.08
18.967,0.84,-1.65,-0.77,2.01
18.977,0.82,-1.53,-0.92,1.96
18.987,0.55,-1.57,-1.10,2.00
18.998,0.33,-1.53,-1.17,1.95
19.007,0.21,-1.53,-1.15,1.92
19.017,0.18,-1.48,-1.02,1.81
19.027,0.26,-1.25,-0.83,1.52
19.037,0.45,-1.03,-0.64,1.29
19.047,0.58,-0.72,-0.40,1.01
19.057,0.68,-0.41,-0.27,0.84
19.067,0.85,-0.18,-0.28,0.92
19.077,1.01,-0.08,-0.21,1.04
19.087,1.08,-0.01,-0.03,1.08
19.097,1.21,-0.12,0.29,1.25
19.107,1.31,-0.43,0.63,1.52
19.117,1.44,-0.88,0.92,1.93
19.127,1.64,-1.33,1.11,2.38
19.137,1.79,-1.67,1.20,2.73
19.147,1.79,-1.83,1.15,2.80
19.157,1.79,-1.75,0.91,2.66
19.167,1.74,-1.43,0.63,2.34
19.178,1.61,-0.86,0.41,1.87
19.188,1.44,-0.09,0.14,1.45
19.198,1.13,0.29,0.11,1.17
19.208,0.90,0.28,0.19,0.96
19.218,0.89,0.25,-0.00,0.92
19.228,0.91,0.20,-0.24,0.96
19.238,0.77,-0.00,0.27,0.82
19.248,0.77,-0.09,1.08,1.33
19.258,1.08,-0.08,1.70,2.02
19.268,1.50,-0.09,2.11,2.59
19.278,1.79,0.03,2.21,2.85
19.288,1.75,0.29,1.67,2.44
19.298,0.95,1.04,0.32,1.44
19.308,-0.46,1.84,-0.45,1.95
19.319,-0.76,2.24,-0.06,2.37
19.329,-1.10,2.56,0.34,2.81
19.339,-1.91,2.77,-0.35,3.38
19.349,-2.17,2.89,-1.49,3.91
19.359,-2.33,2.69,-2.60,4.41
19.369,-2.73,1.96,-3.84,5.10
19.379,-3.61,0.94,-4.59,5.92
19.389,-4.35,0.06,-4.64,6.36
19.399,-4.64,-0.75,-3.82,6.06
19.409,-4.59,-0.64,-2.40,5.21
19.419,-3.39,0.23,-0.86,3.51
19.429,-1.59,1.01,-0.03,1.88
19.439,0.00,1.48,-0.26,1.50
19.449,1.22,1.61,-0.86,2.20
19.459,2.21,1.63,-1.24,3.01
19.469,2.78,1.83,-1.10,3.51
19.479,2.96,2.37,-0.61,3.85
19.489,2.39,2.83,-0.24,3.71
19.499,1.23,2.97,-0.33,3.23
19.510,0.43,3.44,-0.45,3.50
19.520,-0.48,3.14,-0.64,3.24
19.530,-1.40,1.59,-0.74,2.25
19.540,-1.75,0.21,-0.56,1.85
19.550,-1.58,-0.55,-0.53,1.76
19.560,-1.22,-1.15,-0.89,1.90
19.570,-0.87,-1.71,-1.19,2.25
19.580,-0.47,-2.11,-1.15,2.45
19.590,-0.18,-2.45,-0.89,2.61
19.600,-0.12,-2.60,-0.67,2.69
19.610,-0.22,-2.54,-0.54,2.61
19.620,-0.38,-2.33,-0.36,2.39
19.630,-0.57,-2.11,-0.12,2.19
19.640,-0.83,-2.09,0.19,2.26
19.650,-1.05,-2.16,0.50,2.46
19.660,-1.12,-2.24,0.56,2.56
19.670,-1.07,-2.22,0.37,2.50
19.681,-0.94,-2.11,0.24,2.32
19.691,-0.81,-1.92,0.36,2.12
19.701,-0.56,-1.64,0.57,1.82
19.711,-0.26,-1.41,0.85,1.67
19.721,0.07,-1.39,0.96,1.69
19.731,0.36,-1.47,0.77,1.70
19.741,0.58,-1.56,0.34,1.69
19.751,0.76,-1.65,0.23,1.84
19.761,0.75,-1.47,0.34,1.69
19.771,0.46,-0.91,0.20,1.04
19.781,0.16,-0.42,0.35,0.57
19.791,0.20,-0.00,0.71,0.73
19.801,0.21,0.30,0.77,0.86
19.811,-0.04,0.43,0.57,0.72
19.821,-0.20,0.51,0.29,0.62
19.831,-0.18,0.66,0.39,0.78
19.841,-0.49,0.65,0.38,0.90
19.852,-0.98,0.55,0.36,1.19
19.862,-1.02,0.39,0.67,1.28
19.872,-0.31,0.32,1.35,1.42
19.882,0.94,0.55,1.98,2.26
19.892,2.03,0.70,2.21,3.08
19.902,2.80,0.71,2.25,3.66
19.912,3.32,0.71,2.32,4.11
19.922,3.61,0.78,2.39,4.40
19.932,3.64,1.32,2.19,4.45
19.942,3.07,2.50,1.44,4.21
19.952,1.71,3.83,0.74,4.26
19.962,0.00,4.86,0.54,4.89
19.972,-1.92,5.26,-0.09,5.60
19.982,-3.51,5.07,-0.98,6.24
19.992,-4.44,4.54,-1.44,6.51
20.002,-4.66,3.76,-1.55,6.19
20.012,-4.24,2.58,-1.23,5.11
20.023,-3.21,1.14,-0.60,3.46
20.033,-1.85,-0.29,-0.30,1.90
20.043,-0.73,-1.61,-0.45,1.82
20.053,0.11,-2.69,-0.75,2.79
20.063,0.85,-3.36,-1.06,3.62
20.073,1.48,-3.57,-1.76,4.25
20.083,1.63,-3.34,-2.61,4.54
20.093,1.03,-2.71,-3.14,4.28
20.103,0.37,-1.70,-3.06,3.52
20.113,-0.60,-0.53,-2.64,2.75
20.123,-1.69,0.41,-2.27,2.86
20.133,-2.52,1.19,-2.01,3.43
20.143,-2.87,1.59,-1.93,3.81
20.153,-2.66,1.70,-2.06,3.77
20.163,-2.28,1.58,-2.21,3.55
20.173,-1.84,1.20,-2.13,3.06
20.183,-1.37,0.66,-1.84,2.39
20.193,-1.00,0.07,-1.53,1.83
20.203,-0.75,-0.48,-1.35,1.62
20.214,-0.49,-0.94,-1.31,1.68
20.224,-0.30,-1.23,-1.27,1.79
20.234,-0.14,-1.22,-1.21,1.72
20.244,0.04,-1.04,-1.19,1.58
20.254,0.21,-0.83,-1.28,1.54
20.264,0.35,-0.60,-1.28,1.46
20.274,0.47,-0.32,-1.20,1.33
20.284,0.61,-0.01,-1.13,1.29
20.294,0.67,0.23,-1.00,1.23
20.304,0.70,0.41,-0.83,1.15
20.314,0.73,0.44,-0.68,1.08
20.324,0.75,0.32,-0.55,0.98
20.334,0.78,0.14,-0.39,0.88
20.344,0.87,-0.05,-0.25,0.91
20.354,0.91,-0.15,-0.10,0.93
20.364,0.83,-0.23,0.15,0.87
20.374,0.67,-0.30,0.39,0.83
20.384,0.58,-0.37,0.39,0.79
20.395,0.64,-0.47,0.32,0.86
20.405,0.70,-0.56,0.29,0.94
20.415,0.71,-0.49,0.24,0.90
20.425,0.57,-0.27,0.11,0.65
20.435,0.41,-0.19,0.03,0.45
20.445,0.39,-0.18,0.06,0.43
20.455,0.48,-0.09,-0.03,0.49
20.465,0.54,0.01,-0.13,0.56
20.475,0.60,0.11,-0.03,0.61
20.485,0.76,0.13,0.11,0.78
20.495,0.90,0.06,0.23,0.94
20.505,0.94,0.04,0.29,0.99
20.515,0.81,0.04,0.24,0.85
20.525,0.51,-0.04,0.09,0.52
20.535,0.29,-0.33,0.08,0.45
20.545,0.27,-0.59,0.22,0.68
20.555,0.20,-0.63,0.39,0.77
20.566,0.11,-0.57,0.55,0.80
20.575,0.07,-0.45,0.66,0.80
20.586,0.07,-0.30,0.56,0.64
20.596,-0.02,0.07,0.27,0.28
20.606,-0.20,0.53,0.14,0.59
20.616,-0.42,0.95,0.26,1.07
20.626,-0.71,1.21,0.33,1.44
20.636,-0.91,1.37,0.26,1.67
20.646,-0.91,1.34,0.05,1.62
20.656,-0.69,1.34,-0.25,1.52
20.666,-0.38,1.39,-0.51,1.53
20.676,-0.25,1.23,-0.72,1.45
20.686,-0.19,0.84,-0.83,1.19
20.696,-0.25,0.23,-1.09,1.14
20.706,-0.43,-0.56,-1.52,1.67
20.716,-0.60,-1.25,-1.86,2.32
20.726,-0.72,-1.78,-2.07,2.82
20.737,-0.87,-2.03,-2.15,3.08
20.746,-1.07,-1.92,-2.08,3.02
20.757,-1.18,-1.59,-1.78,2.66
20.767,-1.05,-0.95,-1.33,1.94
20.777,-0.91,-0.25,-1.01,1.38
20.787,-0.89,0.62,-0.53,1.21
20.797,-0.79,1.26,-0.14,1.49
20.807,-0.81,1.72,0.09,1.90
20.817,-0.86,2.01,0.34,2.21
20.827,-0.71,2.20,0.46,2.36
20.837,-0.40,2.17,0.40,2.24
20.847,0.02,2.14,0.32,2.16
20.857,0.31,2.12,0.34,2.16
20.867,0.41,2.00,0.35,2.07
20.877,0.46,1.60,0.27,1.69
20.887,0.37,1.02,0.12,1.09
20.897,0.10,0.36,-0.13,0.40
20.907,-0.19,-0.15,-0.37,0.44
20.918,-0.44,-0.50,-0.53,0.85
20.928,-0.68,-0.80,-0.59,1.21
20.938,-0.82,-1.08,-0.58,1.47
20.948,-0.96,-1.20,-0.52,1.62
20.958,-1.14,-1.27,-0.40,1.76
20.968,-1.28,-1.36,-0.16,1.88
20.978,-1.39,-1.42,0.01,1.99
20.988,-1.38,-1.46,0.11,2.01
20.998,-1.29,-1.41,0.10,1.91
21.008,-1.14,-1.24,0.04,1.68
21.018,-0.98,-1.03,0.01,1.42
21.028,-0.96,-0.84,-0.02,1.28
21.038,-1.00,-0.70,-0.10,1.23
21.048,-1.07,-0.55,-0.15,1.22
21.058,-1.01,-0.38,-0.03,1.08
21.068,-0.81,-0.21,0.04,0.84
21.078,-0.60,0.02,-0.02,0.60
21.088,-0.43,0.20,-0.14,0.50
21.098,-0.27,0.39,-0.33,0.57
21.109,-0.16,0.50,-0.28,0.59
21.119,-0.07,0.22,-0.16,0.28
21.129,-0.18,-0.25,-0.01,0.31
21.139,-0.35,-0.68,0.09,0.77
21.149,-0.58,-0.85,0.11,1.04
21.159,-0.77,-0.76,0.17,1.10
21.169,-0.82,-0.62,0.28,1.07
21.179,-0.79,-0.53,0.32,1.00
21.189,-0.71,-0.42,0.24,0.86
21.199,-0.65,-0.34,0.13,0.75
21.209,-0.50,-0.24,0.14,0.57
21.219,-0.41,-0.19,0.07,0.46
21.229,-0.42,-0.22,-0.02,0.48
21.239,-0.34,-0.19,0.01,0.39
21.249,-0.23,-0.08,0.02,0.25
21.259,-0.07,-0.08,0.07,0.12
21.269,0.17,0.05,0.28,0.33
21.279,0.44,0.45,0.41,0.75
21.289,0.64,1.02,0.33,1.25
21.299,0.62,1.42,0.12,1.56
21.310,0.38,1.38,-0.17,1.44
21.320,-0.08,1.10,-0.41,1.18
21.330,-0.49,0.66,-0.40,0.92
21.340,-0.66,0.24,-0.13,0.71
21.350,-0.69,-0.10,0.19,0.72
21.360,-0.72,-0.31,0.36,0.86
21.370,-0.63,-0.44,0.36,0.85
21.380,-0.33,-0.52,0.25,0.67
21.390,-0.09,-0.43,0.24,0.50
21.400,0.22,-0.02,0.34,0.41
21.410,-0.01,0.04,0.23,0.23
21.420,-0.31,-0.07,0.02,0.32
21.430,-0.42,-0.20,-0.07,0.47
21.440,-0.22,-0.26,-0.04,0.35
21.450,0.04,-0.32,0.05,0.33
21.460,0.21,-0.35,0.10,0.42
21.471,0.35,-0.28,0.01,0.45
21.481,0.35,-0.13,-0.11,0.39
21.491,0.19,0.07,-0.16,0.26
21.501,-0.07,0.18,-0.32,0.38
21.511,-0.26,0.28,-0.49,0.62
21.521,-0.42,0.32,-0.54,0.76
21.531,-0.57,0.25,-0.57,0.84
21.541,-0.62,0.13,-0.48,0.79
21.551,-0.57,-0.01,-0.36,0.68
21.561,-0.52,-0.10,-0.24,0.58
21.571,-0.47,-0.11,-0.17,0.51
21.581,-0.42,-0.11,-0.23,0.49
21.591,-0.32,-0.03,-0.39,0.50
21.601,-0.23,-0.04,-0.39,0.46
21.611,-0.21,0.02,-0.45,0.50
21.621,-0.20,0.20,-0.43,0.52
21.632,-0.15,0.35,-0.38,0.54
21.641,-0.11,0.33,-0.30,0.46
21.652,-0.08,0.20,-0.25,0.33
21.662,-0.01,0.07,-0.25,0.26
21.672,0.03,0.05,-0.28,0.28
21.682,0.07,0.07,-0.30,0.31
21.692,0.04,-0.03,-0.18,0.19
21.702,0.14,0.14,-0.34,0.39
21.712,-0.04,0.21,-0.12,0.25
21.722,-0.18,0.15,-0.19,0.30
21.732,-0.29,0.17,-0.25,0.42
21.742,-0.21,0.13,-0.15,0.28
21.752,-0.09,-0.02,-0.02,0.09
21.762,0.01,-0.14,0.07,0.16
