time,ax,ay,az,atotal
0.000,0.10,0.06,0.27,0.29
0.010,0.14,-0.05,0.27,0.31
0.020,0.13,-0.11,0.28,0.33
0.030,0.02,-0.22,0.30,0.38
0.040,-0.00,-0.31,0.35,0.47
0.050,0.06,-0.30,0.34,0.46
0.060,0.10,-0.21,0.30,0.38
0.070,0.07,-0.17,0.32,0.36
0.080,0.07,-0.14,0.32,0.36
0.091,0.08,-0.11,0.29,0.32
0.101,-0.07,-0.16,0.30,0.34
0.111,-0.08,-0.17,0.38,0.43
0.121,0.08,-0.18,0.39,0.43
0.131,0.04,-0.25,0.44,0.51
0.141,0.52,0.08,0.55,0.76
0.151,0.36,-0.05,0.34,0.49
0.161,0.10,-0.21,0.21,0.32
0.171,0.22,0.06,0.23,0.33
0.181,0.10,0.16,0.49,0.52
0.191,0.14,-0.00,0.31,0.34
0.201,0.12,-0.25,0.15,0.32
0.211,0.11,-0.39,0.17,0.44
0.221,0.13,-0.37,0.22,0.45
0.231,0.11,-0.34,0.24,0.44
0.242,0.02,-0.25,0.23,0.34
0.251,-0.14,-0.20,0.15,0.29
0.262,-0.21,-0.17,0.17,0.32
0.272,-0.31,-0.15,0.18,0.39
0.281,-0.34,0.02,0.28,0.44
0.292,-0.13,0.18,0.32,0.39
0.302,-0.00,0.26,0.33,0.42
0.312,0.13,0.16,0.27,0.34
0.322,0.23,-0.08,0.18,0.31
0.332,0.31,-0.15,0.10,0.36
0.342,0.40,-0.06,0.06,0.41
0.352,0.37,0.10,0.02,0.39
0.362,0.24,0.15,-0.08,0.29
0.372,0.24,0.18,-0.07,0.31
0.382,0.25,0.06,-0.04,0.27
0.392,0.29,-0.14,0.03,0.33
0.402,0.37,-0.25,0.10,0.46
0.412,0.41,-0.35,0.11,0.55
0.422,0.38,-0.41,0.05,0.56
0.432,0.24,-0.38,-0.00,0.45
0.442,0.08,-0.26,0.01,0.27
0.452,-0.11,-0.13,0.04,0.18
0.463,-0.30,-0.08,0.10,0.33
0.473,-0.44,-0.12,0.18,0.49
0.483,-0.49,-0.20,0.21,0.57
0.493,-0.46,-0.27,0.10,0.54
0.503,-0.40,-0.31,0.01,0.50
0.513,-0.35,-0.28,0.02,0.45
0.523,-0.21,-0.16,0.11,0.29
0.533,-0.03,0.18,0.18,0.26
0.543,0.07,0.50,0.16,0.53
0.553,0.03,0.53,0.01,0.53
0.563,-0.10,0.23,-0.13,0.28
0.573,-0.12,-0.11,-0.11,0.20
0.583,-0.04,-0.34,0.01,0.34
0.594,0.09,-0.48,0.18,0.52
0.603,0.27,-0.51,0.34,0.67
0.613,0.39,-0.45,0.35,0.70
0.624,0.43,-0.43,0.30,0.67
0.634,0.50,-0.43,0.29,0.72
0.644,0.63,-0.48,0.29,0.85
0.654,0.78,-0.46,0.28,0.95
0.664,0.91,-0.48,0.24,1.05
0.674,0.98,-0.45,0.25,1.11
0.684,0.99,-0.40,0.19,1.09
0.695,0.93,-0.24,0.13,0.97
0.704,0.81,0.07,0.12,0.82
0.714,0.52,0.44,0.10,0.69
0.724,0.20,0.78,-0.04,0.81
0.734,-0.14,0.83,-0.23,0.88
0.744,-0.47,0.70,-0.28,0.89
0.754,-0.66,0.43,-0.12,0.80
0.764,-0.66,0.26,0.07,0.71
0.774,-0.52,0.24,0.16,0.60
0.784,-0.28,0.29,0.22,0.46
0.795,-0.07,0.36,0.29,0.46
0.804,0.13,0.40,0.32,0.52
0.814,0.24,0.34,0.33,0.53
0.825,0.40,0.27,0.40,0.63
0.835,0.65,0.17,0.39,0.78
0.845,0.81,0.01,0.32,0.87
0.855,0.91,-0.29,0.37,1.02
0.865,1.05,-0.54,0.40,1.25
0.875,1.15,-0.66,0.41,1.39
0.885,1.22,-0.69,0.44,1.47
0.895,1.25,-0.63,0.43,1.46
0.905,1.18,-0.51,0.30,1.32
0.915,1.04,-0.44,0.26,1.16
0.925,0.86,-0.46,0.37,1.04
0.935,0.80,-0.38,0.44,0.99
0.945,0.82,-0.20,0.57,1.02
0.955,0.92,-0.07,0.65,1.13
0.965,0.99,-0.08,0.70,1.21
0.975,1.07,-0.12,0.72,1.30
0.986,1.08,-0.15,0.71,1.30
0.996,1.13,-0.14,0.81,1.40
1.006,1.26,-0.03,0.90,1.55
1.016,1.25,0.04,0.83,1.50
1.026,1.15,-0.05,0.73,1.37
1.036,1.07,-0.24,0.69,1.30
1.046,0.96,-0.32,0.77,1.27
1.056,0.87,-0.31,0.83,1.24
1.066,0.82,-0.33,0.91,1.27
1.076,0.88,-0.37,0.93,1.33
1.086,0.95,-0.45,0.95,1.42
1.096,1.03,-0.56,0.95,1.51
1.106,1.14,-0.62,0.93,1.59
1.116,1.20,-0.55,0.88,1.59
1.126,1.20,-0.40,0.79,1.49
1.137,1.18,-0.21,0.74,1.41
1.146,1.14,-0.06,0.69,1.34
1.156,1.06,0.06,0.64,1.24
1.166,0.94,0.13,0.61,1.13
1.177,0.91,0.18,0.74,1.19
1.187,1.02,0.25,0.84,1.35
1.197,1.08,0.28,0.98,1.48
1.207,1.16,0.18,1.23,1.69
1.217,1.26,-0.01,1.40,1.89
1.227,1.35,-0.14,1.44,1.98
1.237,1.32,-0.17,1.42,1.95
1.247,1.17,-0.18,1.42,1.85
1.257,1.10,-0.14,1.38,1.77
1.267,1.13,-0.10,1.34,1.75
1.277,1.19,-0.00,1.28,1.75
1.287,1.19,0.21,1.13,1.65
1.297,1.17,0.47,1.02,1.62
1.307,1.13,0.59,0.91,1.57
1.317,1.11,0.70,1.00,1.65
1.327,1.31,0.80,1.03,1.85
1.337,1.62,0.69,1.03,2.04
1.348,1.85,0.53,1.06,2.19
1.358,1.86,0.52,0.92,2.14
1.368,1.60,0.68,0.52,1.82
1.378,1.11,0.99,-0.12,1.49
1.388,0.46,1.22,-0.72,1.49
1.398,-0.26,1.30,-1.04,1.69
1.408,-0.84,1.06,-1.21,1.81
1.418,-1.23,0.59,-1.37,1.93
1.428,-1.38,0.02,-1.40,1.97
1.438,-1.34,-0.49,-1.24,1.89
1.448,-1.10,-0.75,-0.94,1.63
1.458,-0.73,-0.82,-0.76,1.33
1.468,-0.48,-0.82,-0.75,1.20
1.478,-0.36,-0.86,-0.86,1.27
1.488,-0.39,-0.78,-0.94,1.28
1.498,-0.50,-0.64,-0.88,1.20
1.508,-0.69,-0.39,-0.78,1.11
1.518,-0.79,0.05,-0.60,1.00
1.529,-0.79,0.59,-0.42,1.07
1.539,-0.72,1.02,-0.22,1.27
1.549,-0.59,1.23,-0.04,1.36
1.559,-0.50,1.34,0.03,1.43
1.569,-0.48,1.42,0.09,1.50
1.579,-0.18,1.34,0.06,1.35
1.589,0.17,1.01,0.00,1.03
1.599,0.42,0.61,-0.05,0.75
1.609,0.41,0.25,-0.05,0.48
1.619,0.35,-0.05,-0.01,0.35
1.629,0.33,-0.45,-0.01,0.56
1.639,0.23,-0.88,0.00,0.91
1.649,0.12,-1.23,-0.00,1.24
1.659,0.06,-1.45,-0.02,1.45
1.669,-0.11,-1.58,0.10,1.58
1.679,-0.37,-1.57,0.34,1.65
1.689,-0.45,-1.55,0.34,1.65
1.699,-0.40,-1.51,0.24,1.58
1.710,-0.42,-1.43,0.34,1.53
1.720,-0.32,-1.27,0.51,1.41
1.730,-0.14,-1.12,0.76,1.36
1.740,0.00,-1.01,0.71,1.23
1.750,0.20,-0.89,0.43,1.01
1.760,0.30,-0.74,0.27,0.84
1.770,0.25,-0.69,0.31,0.79
1.780,0.17,-0.74,0.27,0.80
1.790,0.07,-0.92,0.30,0.97
1.800,-0.02,-1.12,0.46,1.21
1.810,0.01,-1.23,0.66,1.39
1.820,0.13,-1.24,0.80,1.49
1.830,0.14,-1.25,0.84,1.52
1.840,0.11,-1.21,0.93,1.53
1.850,0.12,-1.12,1.06,1.55
1.860,0.18,-0.99,1.05,1.45
1.870,0.14,-0.76,0.96,1.23
1.880,-0.02,-0.49,1.05,1.16
1.891,-0.01,-0.27,1.29,1.32
1.901,0.23,-0.10,1.55,1.57
1.911,0.55,0.02,1.66,1.75
1.921,0.78,0.10,1.50,1.69
1.931,0.79,0.16,1.24,1.47
1.941,0.63,0.15,1.30,1.45
1.951,0.50,0.13,1.67,1.75
1.961,0.44,0.07,2.16,2.21
1.971,0.51,0.10,2.44,2.49
1.981,0.59,0.35,2.62,2.71
1.991,0.71,0.71,2.79,2.96
2.001,0.99,1.32,2.54,3.02
2.011,1.00,2.19,2.03,3.15
2.021,0.81,3.17,1.68,3.68
2.031,0.45,3.91,1.54,4.23
2.042,-0.40,3.88,1.45,4.16
2.051,-1.30,3.18,1.08,3.60
2.062,-1.61,2.26,0.82,2.89
2.072,-1.25,1.40,0.93,2.10
2.082,-0.57,0.83,1.03,1.43
2.092,0.11,0.63,0.95,1.15
2.102,0.63,0.56,0.66,1.07
2.112,1.10,0.18,0.23,1.13
2.122,1.56,-0.37,-0.41,1.66
2.132,1.51,-0.92,-1.27,2.18
2.142,1.07,-1.27,-2.18,2.74
2.152,0.49,-1.37,-2.54,2.92
2.162,-0.04,-1.29,-2.62,2.92
2.172,-0.67,-1.08,-2.60,2.89
2.182,-1.27,-0.84,-2.48,2.91
2.192,-1.82,-0.70,-2.30,3.02
2.202,-2.16,-0.59,-2.08,3.05
2.212,-2.18,-0.37,-1.87,2.90
2.222,-1.85,-0.30,-1.66,2.50
2.232,-1.32,-0.36,-1.36,1.93
2.243,-0.79,-0.32,-1.05,1.36
2.253,-0.26,-0.15,-0.96,1.01
2.263,0.22,0.10,-0.85,0.88
2.273,0.56,0.38,-0.78,1.03
2.283,0.65,0.56,-0.86,1.21
2.293,0.48,0.38,-0.93,1.11
2.303,0.17,-0.15,-0.93,0.95
2.313,-0.09,-0.62,-0.90,1.10
2.323,-0.21,-0.85,-0.85,1.22
2.333,-0.15,-1.03,-0.89,1.36
2.343,-0.18,-1.14,-0.93,1.48
2.353,-0.11,-1.15,-0.77,1.39
2.363,0.04,-1.06,-0.63,1.23
2.373,0.29,-0.82,-0.66,1.09
2.383,0.58,-0.54,-0.70,1.06
2.393,0.78,-0.43,-0.57,1.06
2.403,0.95,-0.46,-0.28,1.09
2.414,1.07,-0.54,-0.04,1.20
2.424,1.09,-0.67,0.14,1.28
2.434,1.11,-0.70,0.40,1.37
2.444,1.19,-0.83,0.54,1.55
2.454,1.20,-0.83,0.58,1.57
2.464,1.19,-0.87,0.69,1.63
2.474,1.24,-0.83,0.83,1.71
2.484,1.32,-0.75,0.88,1.75
2.494,1.46,-0.70,0.90,1.85
2.504,1.66,-0.73,0.84,2.00
2.514,1.80,-0.74,0.67,2.05
2.524,1.86,-0.68,0.42,2.03
2.534,1.88,-0.55,0.22,1.97
2.544,1.76,-0.29,0.09,1.79
2.554,1.44,0.02,0.07,1.44
2.564,0.93,0.18,0.17,0.96
2.574,0.54,0.20,0.30,0.65
2.584,0.41,0.21,0.50,0.68
2.595,0.42,0.26,0.92,1.04
2.605,0.68,0.43,1.31,1.54
2.615,1.01,0.44,1.67,2.00
2.625,1.35,0.26,2.00,2.43
2.635,1.72,0.08,2.26,2.84
2.645,2.06,-0.01,2.39,3.15
2.655,2.29,0.08,2.27,3.23
2.665,2.36,0.29,2.03,3.13
2.675,2.07,0.55,1.84,2.82
2.685,1.32,1.09,1.79,2.47
2.695,0.61,1.68,1.88,2.59
2.705,0.46,2.06,2.06,2.95
2.715,0.74,2.22,1.87,2.99
2.725,0.83,2.18,0.90,2.50
2.735,0.46,2.16,-0.31,2.23
2.745,-0.20,2.51,-1.29,2.83
2.756,-0.93,2.77,-2.37,3.76
2.765,-1.87,2.44,-3.26,4.48
2.776,-2.57,1.83,-4.01,5.10
2.786,-3.32,1.37,-4.42,5.69
2.796,-3.56,0.77,-4.22,5.58
2.806,-3.34,-0.09,-3.56,4.89
2.816,-2.68,-0.77,-2.63,3.83
2.826,-1.68,-1.19,-2.05,2.90
2.836,-0.73,-1.35,-1.86,2.42
2.846,-0.04,-1.23,-1.62,2.03
2.856,0.35,-0.80,-1.27,1.54
2.866,0.65,-0.28,-0.87,1.12
2.876,0.87,0.30,-0.52,1.06
2.886,1.01,0.92,-0.30,1.39
2.896,0.87,1.39,-0.28,1.67
2.906,0.39,1.60,-0.37,1.69
2.916,-0.33,1.56,-0.52,1.68
2.926,-0.79,1.27,-0.60,1.61
2.936,-0.50,1.30,-0.38,1.45
2.946,-0.36,1.03,-0.32,1.14
2.957,-0.60,0.28,-0.30,0.72
2.967,-0.46,-0.45,-0.14,0.66
2.977,-0.14,-0.96,-0.03,0.98
2.987,0.06,-1.27,-0.02,1.27
2.997,-0.07,-1.47,-0.06,1.47
3.007,-0.28,-1.63,0.05,1.66
3.017,-0.41,-1.86,0.19,1.91
3.027,-0.42,-2.05,0.32,2.12
3.037,-0.28,-2.07,0.49,2.15
3.047,-0.04,-1.96,0.52,2.03
3.057,0.24,-1.89,0.33,1.94
3.067,0.26,-1.78,0.22,1.81
3.077,0.21,-1.65,0.22,1.68
3.087,0.13,-1.59,0.36,1.63
3.097,-0.07,-1.71,0.48,1.78
3.107,-0.24,-1.76,0.33,1.81
3.117,-0.30,-1.57,0.12,1.61
3.128,-0.32,-1.26,0.20,1.31
3.137,-0.42,-1.14,0.44,1.29
3.148,-0.53,-1.11,0.69,1.41
3.158,-0.37,-1.18,1.10,1.66
3.168,0.07,-1.24,1.50,1.94
3.178,0.52,-1.22,1.61,2.08
3.188,0.74,-1.00,1.44,1.90
3.198,0.75,-0.77,1.07,1.52
3.208,0.81,-0.52,0.91,1.32
3.218,0.74,-0.42,1.22,1.48
3.228,0.70,-0.37,1.55,1.74
3.238,0.65,-0.04,1.48,1.61
3.248,0.57,0.35,1.33,1.49
3.258,0.75,0.79,1.21,1.62
3.268,0.73,1.18,1.39,1.97
3.278,0.36,1.32,1.54,2.06
3.288,0.20,1.17,2.03,2.35
3.298,0.62,0.86,2.74,2.94
3.308,1.48,0.64,3.04,3.44
3.319,2.39,0.87,2.81,3.79
3.329,2.88,2.04,2.21,4.17
3.339,2.58,3.86,1.24,4.80
3.349,1.60,5.26,1.15,5.62
3.359,0.31,5.39,1.60,5.64
3.369,-0.75,4.23,1.78,4.65
3.379,-1.05,3.11,1.23,3.51
3.389,-1.34,2.30,0.24,2.68
3.399,-1.66,1.97,-0.09,2.57
3.409,-1.63,1.84,0.09,2.46
3.419,-1.48,1.39,0.10,2.03
3.429,-1.02,0.47,-0.27,1.15
3.439,-0.35,-0.63,-0.84,1.11
3.449,0.22,-1.45,-1.39,2.02
3.459,0.41,-1.91,-1.95,2.76
3.469,0.08,-2.14,-2.59,3.36
3.479,-0.30,-2.09,-3.01,3.68
3.490,-0.83,-1.85,-2.96,3.59
3.499,-1.55,-1.50,-2.66,3.43
3.510,-2.16,-1.02,-2.32,3.33
3.520,-2.45,-0.50,-2.06,3.24
3.530,-2.44,-0.11,-1.78,3.02
3.540,-2.29,0.03,-1.48,2.73
3.550,-2.11,-0.01,-1.25,2.45
3.560,-1.72,-0.29,-0.99,2.01
3.570,-1.10,-0.57,-0.68,1.42
3.580,-0.47,-0.75,-0.64,1.09
3.590,0.11,-1.00,-0.66,1.20
3.600,0.42,-1.10,-0.67,1.36
3.610,0.54,-1.00,-0.77,1.37
3.620,0.62,-0.90,-0.86,1.40
3.630,0.68,-0.97,-0.85,1.46
3.640,0.58,-1.15,-0.76,1.49
3.650,0.47,-1.22,-0.62,1.45
3.660,0.45,-1.24,-0.49,1.41
3.670,0.51,-1.18,-0.40,1.35
3.681,0.59,-1.01,-0.40,1.24
3.691,0.62,-0.80,-0.41,1.09
3.701,0.64,-0.73,-0.37,1.04
3.711,0.78,-0.78,-0.24,1.13
3.721,0.97,-0.78,-0.03,1.24
3.731,1.06,-0.71,0.21,1.29
3.741,1.08,-0.55,0.37,1.27
3.751,1.13,-0.63,0.51,1.39
3.761,1.09,-0.89,0.70,1.57
3.771,0.97,-1.11,0.93,1.74
3.781,1.02,-1.25,1.13,1.97
3.791,1.11,-1.32,1.20,2.10
3.801,1.24,-1.26,1.11,2.09
3.811,1.48,-1.04,0.90,2.02
3.822,1.53,-0.79,0.72,1.86
3.831,1.47,-0.55,0.63,1.69
3.842,1.31,-0.33,0.52,1.45
3.852,1.02,-0.13,0.48,1.14
3.862,0.73,0.06,0.47,0.88
3.872,0.55,0.31,0.61,0.87
3.882,0.43,0.57,0.85,1.11
3.892,0.48,0.79,1.08,1.42
3.902,0.63,0.86,1.45,1.80
3.912,0.86,0.80,1.91,2.24
3.922,1.10,0.68,2.48,2.80
3.932,1.29,0.63,2.85,3.19
3.942,1.46,0.50,3.01,3.38
3.952,1.60,0.32,3.09,3.49
3.962,1.61,0.40,2.78,3.24
3.972,1.26,0.87,2.12,2.62
3.982,0.76,1.58,1.77,2.49
3.992,0.43,2.09,2.08,2.98
4.002,0.46,2.66,2.11,3.43
4.012,0.23,3.27,0.86,3.39
4.022,-0.22,3.37,-0.87,3.49
4.032,-0.53,3.09,-2.56,4.05
4.042,-0.73,2.50,-4.15,4.90
4.053,-1.43,1.67,-5.00,5.46
4.063,-2.45,0.96,-4.78,5.46
4.073,-2.94,0.30,-4.22,5.15
4.083,-2.98,-0.22,-3.36,4.50
4.093,-2.61,-0.38,-2.32,3.51
4.103,-1.76,-0.44,-1.45,2.32
4.113,-0.94,-0.21,-1.10,1.46
4.123,0.11,0.10,-0.86,0.87
4.133,1.08,0.16,-0.70,1.29
4.143,1.70,0.23,-0.65,1.83
4.153,2.06,0.53,-0.52,2.19
4.163,1.98,1.05,-0.36,2.26
4.173,1.12,1.45,-0.45,1.89
4.183,0.29,1.91,-0.67,2.05
4.193,-0.03,2.39,-0.74,2.50
4.203,-0.93,1.64,-0.80,2.05
4.214,-1.55,0.32,-0.78,1.76
4.224,-1.50,-0.85,-0.58,1.82
4.234,-1.10,-1.61,-0.50,2.01
4.244,-0.70,-2.06,-0.52,2.24
4.254,-0.26,-2.57,-0.41,2.61
4.264,-0.06,-2.85,-0.29,2.87
4.274,-0.02,-2.83,-0.36,2.86
4.284,-0.10,-2.71,-0.46,2.75
4.294,-0.27,-2.55,-0.43,2.60
4.304,-0.52,-2.30,-0.22,2.37
4.314,-0.89,-2.02,0.10,2.21
4.324,-1.23,-1.87,0.34,2.26
4.334,-1.45,-1.80,0.51,2.37
4.344,-1.53,-1.71,0.49,2.35
4.354,-1.42,-1.68,0.36,2.23
4.364,-1.20,-1.78,0.37,2.17
4.374,-0.85,-1.94,0.57,2.19
4.384,-0.31,-2.17,0.85,2.35
4.395,0.34,-2.36,1.02,2.59
4.405,0.90,-2.39,1.22,2.83
4.415,1.22,-2.30,1.46,2.99
4.425,1.33,-2.00,1.46,2.81
4.435,1.18,-1.58,1.53,2.49
4.445,0.95,-0.96,1.53,2.04
4.455,0.69,-0.25,1.31,1.50
4.465,0.44,0.44,1.45,1.58
4.475,0.09,0.93,1.64,1.89
4.485,0.00,1.27,1.69,2.12
4.495,0.34,1.68,2.02,2.65
4.505,0.43,2.07,2.26,3.09
4.515,0.11,2.08,2.17,3.01
4.525,-0.03,1.56,2.43,2.89
4.535,0.58,1.03,3.15,3.36
4.545,1.74,0.91,3.58,4.08
4.555,2.99,1.37,3.40,4.73
4.566,3.64,3.14,2.46,5.40
4.576,3.09,5.55,1.07,6.44
4.586,1.91,7.08,0.63,7.36
4.596,0.42,7.72,0.50,7.75
4.606,-1.96,6.75,-0.82,7.08
4.616,-3.88,4.82,-1.75,6.43
4.626,-3.98,2.98,-1.69,5.25
4.636,-2.94,0.99,-1.35,3.39
4.646,-1.85,-0.80,-1.02,2.26
4.656,-0.93,-2.07,-1.09,2.52
4.666,-0.08,-2.84,-1.18,3.08
4.676,0.57,-2.99,-1.66,3.47
4.686,1.06,-2.52,-2.22,3.52
4.696,0.93,-1.67,-2.45,3.11
4.706,-0.02,-0.79,-2.48,2.60
4.716,-1.26,-0.05,-2.53,2.83
4.726,-2.24,0.44,-2.49,3.38
4.736,-2.89,0.71,-2.39,3.81
4.747,-3.17,0.70,-2.24,3.94
4.757,-3.00,0.36,-1.99,3.61
4.767,-2.33,-0.26,-1.57,2.83
4.777,-1.40,-0.95,-1.04,1.99
4.787,-0.58,-1.40,-0.65,1.65
4.797,0.01,-1.77,-0.57,1.86
4.807,0.58,-2.23,-0.54,2.37
4.817,0.71,-2.22,-0.55,2.40
4.827,0.70,-2.06,-0.76,2.30
4.837,0.76,-2.00,-0.90,2.32
4.847,0.72,-1.92,-1.01,2.29
4.857,0.67,-1.74,-1.06,2.14
4.867,0.69,-1.59,-1.01,2.01
4.877,0.75,-1.41,-0.96,1.86
4.887,0.81,-1.18,-0.89,1.68
4.897,0.83,-0.86,-0.78,1.43
4.907,0.81,-0.52,-0.61,1.14
4.917,0.84,-0.34,-0.37,0.98
4.927,0.90,-0.32,-0.16,0.97
4.938,0.99,-0.27,0.13,1.03
4.948,1.11,-0.43,0.50,1.29
4.958,1.24,-1.03,0.85,1.82
4.968,1.53,-1.68,1.13,2.54
4.978,1.72,-1.96,1.33,2.93
4.988,1.68,-1.97,1.42,2.95
4.998,1.41,-1.90,1.51,2.80
5.008,1.25,-1.79,1.59,2.70
5.018,1.18,-1.50,1.48,2.41
5.028,1.19,-1.05,1.15,1.97
5.038,1.29,-0.61,0.72,1.60
5.048,1.42,-0.27,0.50,1.52
5.058,1.49,0.11,0.46,1.57
5.068,1.45,0.47,0.60,1.64
5.078,1.47,0.80,0.77,1.84
5.088,1.49,0.98,1.02,2.06
5.099,1.42,1.07,1.47,2.31
5.109,1.54,1.01,1.97,2.70
5.119,1.78,0.84,2.81,3.43
5.129,2.21,1.27,3.31,4.18
5.139,2.39,1.71,3.13,4.29
5.149,1.97,1.61,2.91,3.86
5.159,1.25,1.51,2.47,3.16
5.169,0.45,1.66,2.04,2.67
5.179,0.13,1.84,2.13,2.81
5.189,-0.36,2.33,1.77,2.95
5.199,-1.46,2.93,0.28,3.29
5.209,-2.25,3.17,-1.53,4.18
5.219,-2.33,3.12,-3.76,5.42
5.229,-2.57,2.44,-5.71,6.72
5.239,-3.24,1.28,-6.25,7.15
5.249,-4.11,0.32,-5.86,7.17
5.259,-4.28,-0.30,-4.71,6.37
5.269,-3.72,-0.69,-3.16,4.93
5.279,-2.53,-0.43,-2.14,3.34
5.290,-1.13,0.55,-1.82,2.22
5.300,-0.06,1.55,-1.48,2.14
5.310,0.64,1.76,-1.05,2.15
5.320,1.41,1.34,-0.92,2.15
5.330,1.99,1.14,-0.67,2.39
5.340,2.23,1.45,-0.21,2.67
5.350,2.01,1.91,0.18,2.78
5.360,1.02,1.87,0.04,2.13
5.370,0.38,1.75,-0.39,1.83
5.380,0.96,1.94,-0.66,2.27
5.390,0.54,0.83,-1.05,1.44
5.400,-0.02,-0.48,-0.89,1.01
5.410,0.23,-1.12,-0.52,1.26
5.420,0.55,-1.56,-0.71,1.80
5.431,0.56,-2.12,-1.02,2.42
5.440,0.42,-2.68,-1.00,2.89
5.451,-0.14,-3.09,-0.68,3.16
5.461,-0.78,-3.40,-0.27,3.50
5.471,-1.22,-3.50,0.08,3.71
5.481,-1.44,-3.48,0.06,3.77
5.491,-1.56,-3.25,-0.11,3.61
5.501,-1.65,-2.92,0.06,3.35
5.511,-1.62,-2.69,0.31,3.16
5.521,-1.48,-2.57,0.47,3.00
5.531,-1.21,-2.50,0.52,2.82
5.541,-0.80,-2.40,0.50,2.58
5.551,-0.46,-2.21,0.54,2.32
5.561,-0.16,-1.99,0.58,2.08
5.571,0.04,-1.74,0.64,1.86
5.581,0.24,-1.50,0.77,1.70
5.591,0.59,-1.28,0.96,1.71
5.601,0.90,-1.00,1.13,1.76
5.611,1.08,-0.65,1.10,1.67
5.622,0.98,-0.41,1.04,1.49
5.632,0.73,-0.19,0.89,1.17
5.641,0.45,0.08,0.92,1.03
5.652,0.30,0.40,1.09,1.20
5.661,0.13,0.64,1.46,1.60
5.672,0.16,0.81,1.77,1.96
5.682,0.38,1.18,1.73,2.13
5.692,0.15,1.52,1.51,2.14
5.702,-0.26,1.75,1.51,2.33
5.712,-0.12,1.45,2.26,2.68
5.722,1.08,1.02,3.04,3.38
5.732,2.55,1.43,3.28,4.39
5.742,3.51,3.23,2.58,5.43
5.752,3.41,5.31,1.27,6.43
5.762,2.61,6.80,0.73,7.32
5.772,1.15,7.96,0.34,8.05
5.782,-0.99,8.39,-0.41,8.45
5.792,-3.22,7.16,-0.98,7.91
5.802,-3.90,4.41,-0.78,5.94
5.813,-3.08,1.36,-0.24,3.37
5.823,-1.99,-1.13,0.04,2.29
5.833,-1.11,-2.98,0.21,3.19
5.843,-0.04,-4.06,0.04,4.06
5.853,0.81,-4.34,-0.51,4.44
5.863,1.34,-3.76,-1.40,4.22
5.873,1.60,-2.67,-2.08,3.74
5.883,1.03,-1.46,-2.45,3.03
5.893,-0.25,-0.22,-2.58,2.60
5.903,-1.72,0.73,-2.64,3.23
5.913,-2.90,1.20,-2.71,4.14
5.923,-3.68,1.17,-2.68,4.70
5.933,-3.82,0.83,-2.39,4.58
5.943,-3.34,0.30,-2.01,3.91
5.953,-2.36,-0.49,-1.58,2.89
5.963,-1.23,-1.39,-1.10,2.16
5.973,-0.63,-1.63,-0.70,1.88
5.983,0.06,-2.00,-0.67,2.11
5.993,0.57,-2.01,-0.68,2.20
6.004,0.74,-1.63,-0.75,1.94
6.014,0.97,-1.49,-0.81,1.95
6.024,1.06,-1.44,-0.73,1.94
6.034,1.08,-1.38,-0.60,1.85
6.044,1.14,-1.42,-0.54,1.90
6.054,1.18,-1.39,-0.46,1.88
6.064,1.10,-1.29,-0.45,1.75
6.074,1.08,-1.13,-0.46,1.63
6.084,1.13,-1.05,-0.30,1.57
6.094,1.25,-1.00,-0.16,1.61
6.104,1.22,-0.86,-0.08,1.49
6.114,0.98,-0.66,-0.01,1.18
6.124,0.96,-0.74,0.29,1.25
6.134,1.04,-1.23,0.59,1.71
6.144,0.95,-1.74,0.92,2.18
6.154,0.94,-1.97,1.18,2.48
6.164,0.88,-1.98,1.22,2.48
6.174,0.70,-1.88,1.07,2.28
6.185,0.60,-1.78,0.95,2.11
6.195,0.58,-1.46,0.88,1.80
6.205,0.78,-1.03,0.80,1.53
6.215,1.12,-0.63,0.55,1.40
6.225,1.47,-0.33,0.36,1.55
6.235,1.78,0.01,0.26,1.80
6.245,1.93,0.47,0.32,2.01
6.255,2.02,0.83,0.56,2.25
6.265,1.91,0.96,1.14,2.43
6.275,1.73,0.96,1.93,2.76
6.285,1.92,0.80,2.63,3.35
6.295,2.41,0.63,2.98,3.88
6.305,2.59,0.48,3.06,4.04
6.315,2.36,0.42,2.83,3.71
6.325,1.85,0.56,2.41,3.09
6.335,1.02,1.05,1.95,2.44
6.346,-0.08,1.84,1.68,2.49
6.356,-0.85,2.53,1.93,3.29
6.366,-1.49,3.24,2.07,4.12
6.376,-2.24,3.91,0.92,4.60
6.386,-2.39,4.05,-1.13,4.83
6.396,-1.65,3.69,-3.33,5.24
6.406,-1.21,2.77,-5.15,5.97
6.416,-1.70,1.48,-5.80,6.22
6.426,-2.48,0.41,-5.44,5.99
6.436,-3.15,-0.21,-4.55,5.53
6.446,-3.38,-0.37,-3.17,4.65
6.456,-2.79,-0.14,-2.32,3.63
6.466,-1.72,0.56,-1.84,2.58
6.476,-0.57,1.00,-1.34,1.77
6.486,0.14,1.08,-0.72,1.30
6.496,1.12,0.97,-0.54,1.58
6.506,2.00,0.78,-0.81,2.29
6.516,2.53,0.93,-0.71,2.79
6.526,2.49,1.24,-0.35,2.81
6.537,1.60,1.36,-0.36,2.13
6.546,0.51,1.38,-0.61,1.59
6.557,0.28,1.72,-0.78,1.91
6.567,-0.32,1.33,-0.89,1.64
6.577,-1.01,0.22,-0.85,1.34
6.587,-1.19,-0.72,-0.67,1.54
6.597,-0.89,-1.32,-0.67,1.73
6.607,-0.58,-1.66,-0.60,1.86
6.617,-0.32,-2.03,-0.50,2.12
6.627,-0.30,-2.29,-0.47,2.36
6.637,-0.43,-2.50,-0.58,2.61
6.647,-0.75,-2.61,-0.53,2.76
6.657,-1.11,-2.58,-0.27,2.82
6.667,-1.35,-2.61,0.02,2.94
6.677,-1.55,-2.68,0.26,3.10
6.687,-1.61,-2.74,0.55,3.22
6.697,-1.52,-2.86,0.77,3.33
6.707,-1.32,-2.93,0.81,3.32
6.718,-1.04,-2.93,0.76,3.20
6.727,-0.65,-2.91,0.76,3.08
6.738,-0.14,-3.00,0.80,3.11
6.748,0.39,-3.15,0.79,3.27
6.758,0.95,-3.29,0.69,3.49
6.768,1.37,-3.18,0.58,3.52
6.778,1.56,-2.75,0.68,3.23
6.788,1.53,-2.09,1.02,2.78
6.798,1.38,-1.17,1.35,2.26
6.808,0.94,0.09,0.88,1.30
6.818,0.52,1.20,0.79,1.53
6.828,0.19,1.90,0.89,2.10
6.838,-0.24,2.07,1.17,2.40
6.848,-0.39,1.71,1.69,2.44
6.858,0.19,1.17,1.71,2.08
6.868,0.70,0.71,1.79,2.05
6.879,0.92,0.74,2.00,2.32
6.889,1.21,1.04,2.48,2.95
6.899,1.92,1.13,3.09,3.81
6.909,3.10,1.40,3.61,4.96
6.919,4.13,2.31,3.64,5.98
6.929,4.40,4.10,2.79,6.63
6.939,3.81,6.09,1.80,7.40
6.949,2.61,7.59,1.40,8.15
6.959,0.65,8.15,0.82,8.22
6.969,-2.18,7.30,-0.28,7.62
6.979,-4.25,5.72,-1.72,7.33
6.989,-4.82,3.57,-2.22,6.40
6.999,-4.25,0.96,-1.80,4.72
7.009,-3.18,-1.42,-1.25,3.70
7.019,-2.14,-3.14,-1.05,3.94
7.029,-1.05,-4.01,-1.36,4.36
7.039,-0.11,-3.86,-1.93,4.32
7.049,0.43,-2.66,-2.07,3.40
7.059,0.24,-0.95,-2.07,2.30
7.070,-0.69,0.37,-2.20,2.34
7.080,-1.78,1.00,-2.39,3.14
7.090,-2.65,1.16,-2.35,3.73
7.100,-3.29,0.95,-2.05,3.99
7.110,-3.63,0.41,-1.73,4.04
7.120,-3.35,-0.24,-1.39,3.63
7.130,-2.45,-0.98,-1.05,2.84
7.140,-1.24,-1.72,-0.60,2.20
7.150,-0.41,-1.79,-0.35,1.87
7.160,0.32,-2.00,-0.64,2.12
7.170,0.93,-2.20,-0.83,2.53
7.180,1.27,-2.15,-1.03,2.70
7.190,1.48,-2.02,-1.08,2.72
7.200,1.50,-1.93,-1.09,2.68
7.210,1.39,-1.81,-1.03,2.51
7.220,1.12,-1.66,-0.91,2.20
7.230,0.90,-1.51,-0.74,1.91
7.241,0.71,-1.37,-0.55,1.63
7.251,0.63,-1.12,-0.29,1.32
7.260,0.81,-0.85,-0.04,1.17
7.271,1.03,-0.81,-0.06,1.31
7.281,1.06,-0.82,-0.10,1.35
7.291,1.07,-0.87,0.00,1.38
7.301,1.23,-1.13,0.28,1.70
7.311,1.42,-1.46,0.66,2.14
7.321,1.51,-1.58,0.92,2.37
7.331,1.48,-1.50,1.01,2.34
7.341,1.40,-1.39,0.92,2.17
7.351,1.38,-1.34,0.83,2.10
7.361,1.32,-1.19,1.02,2.05
7.371,1.23,-0.88,1.21,1.94
7.381,1.21,-0.51,1.13,1.73
7.391,1.29,-0.15,0.90,1.58
7.402,1.45,0.09,0.88,1.70
7.411,1.57,0.37,0.96,1.88
7.422,1.70,0.75,1.03,2.12
7.431,1.88,1.15,1.14,2.48
7.442,1.96,1.47,1.27,2.76
7.452,1.84,1.34,1.78,2.89
7.462,1.80,1.05,2.32,3.12
7.472,1.95,0.84,2.66,3.41
7.482,1.95,0.57,2.55,3.26
7.492,1.77,0.22,2.11,2.77
7.502,1.32,0.09,1.46,1.97
7.512,0.47,0.62,0.73,1.07
7.522,-0.33,1.42,0.38,1.51
7.532,-0.74,2.11,0.62,2.32
7.542,-1.52,2.87,0.81,3.34
7.552,-2.59,3.33,-0.29,4.23
7.562,-3.02,3.48,-2.22,5.11
7.572,-2.99,3.28,-4.12,6.06
7.582,-3.06,2.44,-5.07,6.41
7.592,-3.40,1.62,-5.00,6.26
7.603,-3.68,1.11,-4.66,6.04
7.612,-3.68,0.79,-3.94,5.45
7.623,-2.99,0.49,-2.84,4.15
7.633,-1.88,0.50,-2.02,2.81
7.643,-1.05,0.95,-1.64,2.16
7.653,-0.39,1.20,-1.27,1.79
7.663,0.34,1.07,-0.99,1.50
7.673,1.23,0.94,-0.77,1.73
7.683,1.91,1.17,-0.44,2.28
7.693,2.00,1.68,-0.22,2.62
7.703,1.41,2.08,-0.30,2.53
7.713,0.45,2.03,-0.73,2.21
7.723,-0.22,1.89,-0.84,2.08
7.733,-0.31,1.74,-0.77,1.92
7.743,-0.90,0.88,-0.65,1.42
7.753,-1.29,-0.45,-0.54,1.47
7.763,-1.00,-1.61,-0.47,1.96
7.773,-0.74,-2.42,-0.42,2.56
7.783,-0.41,-3.17,-0.42,3.22
7.794,-0.02,-3.44,-0.37,3.46
7.804,0.11,-3.41,-0.34,3.43
7.814,-0.11,-3.48,-0.37,3.50
7.824,-0.47,-3.46,-0.22,3.50
7.834,-0.79,-3.20,0.01,3.29
7.844,-1.16,-2.75,0.10,2.98
7.854,-1.35,-2.32,0.13,2.69
7.864,-1.64,-1.87,0.20,2.50
7.874,-1.84,-1.52,0.31,2.41
7.884,-1.83,-1.28,0.38,2.27
7.894,-1.57,-1.16,0.44,2.01
7.904,-1.15,-1.28,0.58,1.82
7.914,-0.66,-1.59,0.84,1.91
7.924,0.01,-1.95,1.01,2.20
7.934,0.70,-2.23,1.06,2.57
7.944,1.31,-2.38,1.07,2.92
7.955,1.75,-2.29,1.09,3.08
7.965,1.97,-1.92,1.20,3.00
7.975,1.75,-1.31,1.22,2.50
7.985,1.32,-0.67,1.15,1.87
7.995,0.95,-0.21,1.20,1.54
8.005,0.68,0.14,1.50,1.65
8.015,0.47,0.57,1.64,1.80
8.025,0.44,0.95,1.39,1.74
8.035,0.50,1.17,1.05,1.65
8.045,0.34,1.37,1.15,1.82
8.055,-0.14,1.50,1.43,2.07
8.065,-0.54,1.43,1.90,2.43
8.075,-0.37,1.25,2.57,2.88
8.085,0.27,1.27,3.11,3.37
8.095,1.10,1.83,3.17,3.82
8.105,1.66,3.12,2.53,4.34
8.115,1.59,4.94,1.42,5.38
8.125,1.13,6.43,0.96,6.60
8.135,0.42,6.83,1.04,6.92
8.145,-0.46,5.90,0.84,5.98
8.155,-1.08,4.28,-0.01,4.41
8.166,-1.52,2.74,-0.99,3.29
8.176,-1.94,1.65,-0.98,2.73
8.186,-1.99,0.77,-0.34,2.16
8.196,-1.66,-0.43,-0.21,1.73
8.206,-1.03,-1.69,-0.31,2.01
8.216,-0.12,-2.50,-0.53,2.55
8.226,0.41,-2.68,-1.38,3.04
8.236,0.37,-2.42,-2.39,3.42
8.246,-0.07,-1.85,-2.78,3.34
8.256,-0.90,-1.03,-2.70,3.02
8.266,-1.85,-0.29,-2.56,3.17
8.276,-2.53,0.17,-2.51,3.56
8.286,-2.93,0.36,-2.44,3.83
8.296,-2.84,0.13,-2.21,3.60
8.306,-2.32,-0.32,-1.75,2.93
8.316,-2.06,-0.32,-1.28,2.45
8.326,-1.40,-0.67,-1.13,1.92
8.337,-0.78,-1.19,-1.04,1.76
8.347,-0.50,-1.49,-1.09,1.91
8.357,-0.15,-1.68,-1.18,2.06
8.367,0.03,-1.91,-1.19,2.25
8.377,0.06,-2.04,-1.17,2.35
8.387,0.20,-1.96,-1.18,2.29
8.397,0.26,-1.71,-1.11,2.06
8.407,0.37,-1.55,-1.02,1.89
8.417,0.51,-1.41,-0.94,1.77
8.427,0.74,-1.31,-0.93,1.77
8.437,0.85,-1.04,-0.89,1.61
8.447,0.87,-0.76,-0.74,1.37
8.457,0.97,-0.58,-0.47,1.22
8.467,1.07,-0.44,-0.09,1.16
8.477,1.22,-0.40,0.26,1.31
8.487,1.34,-0.35,0.59,1.50
8.498,1.52,-0.39,0.85,1.78
8.508,1.48,-0.66,1.00,1.90
8.518,1.18,-0.90,1.03,1.80
8.528,0.87,-1.26,1.05,1.86
8.538,0.82,-1.48,1.20,2.07
8.548,1.04,-1.56,1.28,2.27
8.558,1.17,-1.61,1.38,2.42
8.568,1.27,-1.42,1.34,2.33
8.578,1.48,-1.10,1.15,2.17
8.588,1.67,-0.70,0.92,2.04
8.598,1.79,-0.27,0.57,1.90
8.608,1.81,0.02,0.38,1.84
8.618,1.74,0.23,0.53,1.83
8.628,1.72,0.54,0.66,1.92
8.638,1.66,0.75,0.87,2.02
8.648,1.44,0.87,1.33,2.14
8.658,1.22,0.86,1.68,2.25
8.669,1.17,0.66,1.99,2.40
8.678,1.19,0.33,2.28,2.59
8.689,1.16,0.27,2.46,2.73
8.699,1.10,0.75,2.13,2.51
8.709,0.65,1.27,1.80,2.30
8.719,0.29,1.72,1.94,2.61
8.729,0.12,2.53,1.91,3.17
8.739,-0.51,3.36,1.37,3.66
8.749,-1.31,3.62,0.69,3.91
8.759,-1.40,3.59,-0.03,3.86
8.769,-1.18,3.46,-1.15,3.83
8.779,-1.03,2.81,-2.70,4.03
8.789,-1.20,1.72,-4.25,4.74
8.799,-1.72,0.73,-4.92,5.26
8.809,-2.21,-0.17,-4.55,5.06
8.819,-2.18,-0.68,-3.97,4.58
8.829,-1.77,-0.78,-3.55,4.04
8.839,-1.07,-0.42,-2.81,3.03
8.849,-0.56,-0.01,-1.78,1.86
8.860,-0.26,0.44,-0.67,0.85
8.870,0.21,0.82,-0.05,0.85
8.880,0.79,1.21,-0.21,1.46
8.890,1.00,1.62,-0.64,2.00
8.900,0.90,1.96,-0.56,2.23
8.910,0.68,1.89,-0.19,2.01
8.920,0.16,1.61,-0.23,1.63
8.930,0.75,1.89,-0.51,2.09
8.940,0.94,1.57,-1.02,2.09
8.950,0.34,0.51,-1.16,1.31
8.960,-0.06,-0.06,-0.88,0.88
8.970,-0.22,-0.19,-0.62,0.69
8.980,-0.26,-0.57,-0.66,0.91
8.990,-0.20,-1.19,-0.69,1.40
9.000,-0.39,-1.82,-0.67,1.98
9.010,-0.64,-2.46,-0.62,2.62
9.020,-0.94,-2.97,-0.41,3.14
9.030,-1.18,-3.37,-0.09,3.58
9.040,-1.20,-3.66,0.19,3.85
9.051,-1.02,-3.58,0.27,3.73
9.061,-0.80,-3.20,0.33,3.32
9.071,-0.64,-2.74,0.40,2.84
9.081,-0.48,-2.30,0.43,2.38
9.091,-0.27,-2.08,0.69,2.21
9.101,-0.11,-2.14,0.82,2.30
9.111,0.03,-2.28,0.76,2.40
9.121,0.08,-2.37,0.63,2.45
9.131,0.14,-2.24,0.50,2.30
9.141,0.24,-1.99,0.41,2.05
9.151,0.37,-1.84,0.59,1.97
9.161,0.62,-1.71,1.00,2.08
9.171,0.85,-1.35,1.28,2.04
9.181,0.83,-0.93,1.12,1.68
9.191,0.58,-0.48,1.17,1.39
9.201,0.35,-0.04,0.97,1.03
9.212,0.44,0.26,1.41,1.50
9.221,0.48,0.34,1.66,1.76
9.232,0.40,0.38,1.56,1.66
9.242,0.59,0.77,1.48,1.77
9.252,0.56,1.69,1.56,2.37
9.262,0.07,2.28,1.75,2.87
9.272,-0.33,2.12,2.37,3.20
9.282,0.15,2.18,2.99,3.70
9.292,1.21,3.61,2.67,4.65
9.302,1.79,6.02,1.37,6.43
9.312,1.58,7.82,0.70,8.01
9.322,0.66,7.50,0.92,7.59
9.332,-0.23,5.18,1.17,5.32
9.342,-0.28,2.73,1.11,2.96
9.352,0.08,1.21,0.33,1.25
9.362,0.07,0.55,-0.19,0.58
9.372,-0.15,0.71,-0.00,0.73
9.382,-0.44,0.64,0.34,0.85
9.392,-0.60,-0.07,0.23,0.65
9.403,-0.27,-0.78,-0.49,0.96
9.413,0.06,-1.16,-1.48,1.88
9.423,-0.00,-1.19,-2.55,2.81
9.433,-0.03,-1.08,-3.18,3.36
9.443,-0.34,-0.81,-3.41,3.52
9.453,-1.05,-0.50,-3.50,3.69
9.463,-1.74,-0.29,-3.41,3.84
9.473,-2.28,-0.10,-3.05,3.81
9.483,-2.52,-0.01,-2.48,3.53
9.493,-2.31,-0.00,-1.82,2.94
9.503,-1.99,-0.26,-1.23,2.36
9.513,-1.50,-0.77,-0.78,1.86
9.523,-0.95,-1.37,-0.32,1.69
9.533,-0.59,-1.74,-0.18,1.84
9.543,-0.09,-2.14,-0.41,2.18
9.554,0.20,-2.23,-0.59,2.32
9.563,0.46,-2.08,-0.84,2.29
9.573,0.67,-1.94,-1.02,2.29
9.583,0.69,-1.90,-1.12,2.31
9.594,0.61,-1.80,-1.11,2.20
9.604,0.49,-1.61,-1.10,2.01
9.614,0.42,-1.48,-1.12,1.90
9.624,0.41,-1.39,-1.17,1.87
9.634,0.37,-1.19,-1.03,1.61
9.644,0.34,-0.92,-0.67,1.19
9.654,0.42,-0.72,-0.30,0.88
9.664,0.56,-0.55,0.03,0.79
9.674,0.86,-0.46,0.30,1.02
9.684,1.15,-0.60,0.54,1.41
9.694,1.40,-0.86,0.77,1.81
9.704,1.67,-1.30,0.95,2.32
9.714,1.98,-1.65,1.04,2.78
9.724,2.24,-1.73,1.14,3.05
9.734,2.31,-1.53,1.12,2.98
9.744,2.17,-1.17,1.02,2.67
9.755,1.92,-0.94,0.88,2.31
9.764,1.55,-0.79,0.70,1.88
9.775,1.26,-0.62,0.54,1.50
9.785,0.97,-0.39,0.45,1.14
9.795,0.79,-0.13,0.49,0.94
9.805,0.78,0.29,0.60,1.02
9.815,0.97,0.76,0.84,1.50
9.825,1.24,1.02,1.42,2.14
9.835,1.79,0.98,2.02,2.87
9.845,2.43,0.73,2.47,3.54
9.855,2.76,0.61,2.65,3.88
9.865,2.61,0.57,2.38,3.58
9.875,1.96,0.51,2.03,2.87
9.885,0.79,0.97,1.64,2.06
9.895,-0.73,1.88,1.59,2.57
9.905,-1.63,2.52,2.38,3.83
9.915,-1.51,3.24,2.77,4.52
9.925,-1.46,3.92,1.45,4.42
9.935,-1.51,4.05,-0.96,4.42
9.946,-1.09,4.21,-3.64,5.67
9.956,-1.21,3.85,-5.41,6.75
9.966,-2.15,2.90,-6.26,7.22
9.976,-3.36,2.03,-6.45,7.56
9.986,-4.25,0.99,-5.44,6.98
9.996,-4.38,-0.06,-3.64,5.70
10.006,-3.70,-0.56,-2.14,4.31
10.016,-2.51,-0.42,-1.32,2.87
10.026,-1.08,0.03,-1.09,1.53
10.036,0.02,0.77,-0.85,1.15
10.046,0.99,0.96,-0.63,1.51
10.056,1.75,0.70,-0.54,1.96
10.066,2.08,0.69,-0.41,2.23
10.076,2.14,0.96,-0.19,2.36
10.086,1.75,1.16,-0.26,2.11
10.096,0.75,1.10,-0.64,1.48
10.106,0.78,1.44,-0.75,1.80
10.116,0.80,1.20,-0.81,1.66
10.127,0.04,0.03,-0.91,0.92
10.136,-0.12,-0.97,-0.72,1.22
10.147,-0.09,-1.44,-0.52,1.53
10.157,0.04,-1.83,-0.47,1.89
10.167,0.02,-2.35,-0.63,2.43
10.177,-0.24,-2.91,-0.52,2.97
10.187,-0.65,-3.26,-0.16,3.33
10.197,-0.95,-3.37,-0.05,3.50
10.207,-1.26,-3.31,-0.02,3.54
10.217,-1.44,-3.00,0.08,3.33
10.227,-1.55,-2.58,0.18,3.01
10.237,-1.68,-2.19,0.31,2.78
10.247,-1.70,-1.91,0.56,2.62
10.257,-1.48,-1.77,0.73,2.42
10.267,-1.10,-1.69,0.67,2.13
10.277,-0.77,-1.65,0.53,1.90
10.287,-0.47,-1.72,0.51,1.85
10.297,-0.19,-1.78,0.84,1.98
10.308,0.25,-1.71,1.23,2.12
10.318,0.75,-1.64,1.45,2.32
10.328,1.17,-1.63,1.46,2.48
10.338,1.46,-1.54,1.32,2.50
10.348,1.52,-1.17,0.88,2.11
10.358,1.29,-0.57,0.60,1.53
10.368,0.85,-0.05,0.99,1.31
10.378,0.36,0.19,1.36,1.41
10.388,-0.07,0.30,1.61,1.64
10.398,-0.17,0.35,1.65,1.70
10.408,-0.04,0.58,1.28,1.40
10.418,-0.25,1.05,1.04,1.50
10.428,-0.69,1.45,1.28,2.05
10.438,-0.88,1.26,2.15,2.64
10.448,-0.06,0.91,2.89,3.03
10.458,1.49,1.10,3.18,3.68
10.468,2.82,2.07,3.00,4.61
10.479,3.54,3.93,2.17,5.72
10.489,3.57,5.86,1.05,6.94
10.499,3.10,7.31,1.06,8.01
10.509,1.86,7.49,0.93,7.78
10.519,-0.62,5.65,0.43,5.70
10.529,-2.30,3.51,-0.50,4.22
10.539,-2.44,2.26,-1.31,3.58
10.549,-2.21,1.32,-1.55,3.00
10.559,-1.90,0.03,-1.14,2.21
10.569,-1.44,-1.32,-0.61,2.04
10.579,-0.61,-2.23,-0.63,2.40
10.589,0.09,-2.39,-1.20,2.68
10.599,0.51,-1.84,-2.11,2.85
10.609,0.65,-1.00,-2.50,2.77
10.619,0.08,-0.09,-2.64,2.64
10.629,-1.15,0.45,-2.88,3.13
10.640,-2.30,0.56,-2.84,3.70
10.649,-3.03,0.43,-2.52,3.96
10.660,-3.33,0.16,-2.17,3.97
10.670,-3.26,-0.18,-1.76,3.71
10.680,-2.85,-0.76,-1.41,3.27
10.690,-2.22,-1.37,-1.09,2.83
10.700,-1.58,-1.77,-0.87,2.53
10.710,-0.74,-2.24,-0.83,2.50
10.720,-0.08,-2.33,-0.83,2.47
10.730,0.31,-2.13,-0.96,2.35
10.740,0.66,-1.85,-1.04,2.22
10.750,0.90,-1.80,-1.08,2.28
10.760,1.07,-1.76,-1.03,2.30
10.770,1.22,-1.79,-0.88,2.34
10.780,1.24,-1.74,-0.77,2.27
10.790,1.36,-1.58,-0.72,2.21
10.800,1.43,-1.43,-0.66,2.12
10.811,1.43,-1.16,-0.44,1.89
10.820,1.52,-0.80,-0.25,1.74
10.831,1.54,-0.46,-0.07,1.61
10.841,1.42,-0.30,0.17,1.46
10.851,1.33,-0.44,0.45,1.47
10.861,1.33,-0.76,0.73,1.70
10.871,1.35,-1.13,0.91,1.98
10.881,1.41,-1.46,1.03,2.28
10.891,1.63,-1.55,1.10,2.50
10.901,1.79,-1.34,1.01,2.46
10.911,1.79,-1.05,1.08,2.34
10.921,1.69,-0.75,1.27,2.24
10.931,1.50,-0.51,1.25,2.02
10.941,1.33,-0.39,0.84,1.62
10.951,1.27,-0.24,0.24,1.31
10.961,1.13,-0.07,-0.01,1.13
10.971,0.91,0.02,0.07,0.91
10.981,0.66,0.20,0.33,0.77
10.991,0.72,0.47,0.62,1.06
11.001,0.95,0.71,1.10,1.62
11.012,1.32,0.93,1.51,2.21
11.021,1.80,0.95,1.95,2.82
11.032,2.36,0.82,2.28,3.38
11.042,2.71,0.69,2.32,3.63
11.052,2.64,0.73,2.10,3.45
11.062,1.83,1.28,1.71,2.81
11.072,0.61,1.88,1.79,2.66
11.082,-0.02,2.30,2.09,3.10
11.092,-0.77,2.96,1.87,3.59
11.102,-1.79,3.37,1.12,3.98
11.112,-2.03,3.42,-0.14,3.98
11.122,-1.59,3.45,-1.70,4.16
11.132,-1.20,3.24,-3.49,4.91
11.142,-1.36,2.64,-5.06,5.87
11.152,-2.25,1.88,-5.87,6.56
11.162,-3.14,0.83,-5.41,6.31
11.172,-3.50,-0.28,-4.27,5.53
11.182,-3.17,-1.29,-3.17,4.67
11.193,-2.86,-1.32,-2.12,3.80
11.203,-1.98,-0.23,-1.12,2.29
11.213,-0.81,0.77,-0.40,1.19
11.223,0.35,0.96,-0.18,1.04
11.233,1.04,0.75,-0.38,1.34
11.243,1.24,0.67,-0.49,1.50
11.253,1.27,0.78,-0.33,1.53
11.263,0.92,0.79,-0.26,1.24
11.273,0.37,0.75,-0.41,0.94
11.283,0.36,1.05,-0.39,1.17
11.293,-0.07,0.91,-0.57,1.08
11.303,-0.65,0.08,-0.63,0.91
11.313,-0.57,-0.64,-0.44,0.96
11.323,-0.21,-1.01,-0.35,1.08
11.333,-0.02,-1.27,-0.48,1.36
11.343,0.05,-1.68,-0.62,1.79
11.353,-0.01,-2.03,-0.58,2.11
11.364,-0.14,-2.39,-0.47,2.44
11.373,-0.38,-2.74,-0.32,2.78
11.383,-0.79,-2.62,-0.08,2.74
11.394,-1.09,-2.29,0.17,2.54
11.404,-1.29,-1.97,0.29,2.37
11.414,-1.49,-1.73,0.33,2.31
11.424,-1.56,-1.63,0.29,2.28
11.434,-1.52,-1.54,0.36,2.20
11.444,-1.42,-1.57,0.60,2.20
11.454,-1.18,-1.72,0.70,2.20
11.464,-0.85,-1.91,0.74,2.22
11.474,-0.44,-2.14,0.93,2.38
11.484,0.02,-2.29,1.00,2.50
11.494,0.51,-2.32,1.02,2.58
11.504,0.91,-2.18,1.08,2.60
11.514,1.14,-1.89,1.14,2.48
11.524,1.22,-1.45,1.07,2.17
11.534,1.07,-0.92,0.89,1.67
11.544,0.82,-0.39,1.00,1.35
11.555,0.52,-0.02,1.26,1.37
11.565,0.06,0.20,0.99,1.01
11.575,-0.31,0.25,0.73,0.84
11.585,-0.36,0.71,0.86,1.17
11.595,-0.85,1.64,1.28,2.25
11.605,-1.46,2.14,1.86,3.19
11.615,-1.17,1.63,2.61,3.29
11.625,0.26,1.24,3.17,3.42
11.635,1.99,1.36,3.44,4.20
11.645,3.39,1.96,3.62,5.33
11.655,4.57,3.10,3.15,6.36
11.665,5.33,4.55,2.06,7.31
11.675,5.00,5.44,1.57,7.56
11.685,3.64,5.71,1.51,6.94
11.695,0.78,4.72,0.99,4.89
11.705,-2.16,3.48,-0.23,4.11
11.715,-3.69,2.88,-1.03,4.80
11.726,-4.18,2.44,-1.38,5.03
11.736,-4.05,1.49,-1.54,4.58
11.746,-3.28,0.02,-1.27,3.52
11.756,-1.74,-0.94,-1.18,2.30
11.766,-0.42,-1.38,-1.71,2.24
11.776,0.57,-1.80,-2.65,3.25
11.786,1.36,-2.16,-2.98,3.93
11.796,1.38,-1.99,-2.88,3.76
11.806,0.60,-1.38,-2.50,2.92
11.816,-0.58,-0.66,-2.08,2.25
11.826,-1.83,-0.05,-1.82,2.58
11.836,-2.80,0.21,-1.51,3.19
11.846,-3.29,0.16,-1.28,3.53
11.856,-3.28,-0.03,-1.06,3.45
11.866,-2.72,-0.43,-0.93,2.90
11.876,-1.69,-1.05,-0.94,2.20
11.886,-0.77,-1.58,-1.06,2.05
11.896,-0.18,-1.73,-1.16,2.09
11.906,0.25,-1.71,-1.22,2.12
11.917,0.66,-1.80,-1.27,2.30
11.927,0.88,-1.93,-1.24,2.45
11.937,0.94,-2.00,-1.17,2.50
11.947,0.75,-1.91,-1.05,2.31
11.957,0.52,-1.65,-1.01,2.01
11.967,0.34,-1.38,-0.97,1.72
11.977,0.21,-1.14,-0.88,1.46
11.987,0.21,-0.93,-0.67,1.16
11.997,0.35,-0.78,-0.46,0.97
12.007,0.48,-0.61,-0.28,0.82
12.017,0.67,-0.44,-0.06,0.81
12.027,0.91,-0.35,0.17,0.99
12.037,1.18,-0.53,0.48,1.38
12.047,1.50,-0.88,0.80,1.92
12.057,1.78,-1.16,1.02,2.36
12.067,1.94,-1.38,1.16,2.65
12.077,1.92,-1.56,1.20,2.75
12.087,1.80,-1.59,1.19,2.68
12.098,1.65,-1.43,1.19,2.49
12.108,1.57,-1.08,1.08,2.19
12.118,1.67,-0.65,0.79,1.95
12.128,1.80,-0.12,0.62,1.91
12.138,1.92,0.40,0.63,2.06
12.148,1.83,0.70,0.81,2.12
12.158,1.75,0.87,0.89,2.15
12.168,1.58,0.85,1.05,2.08
12.178,1.41,0.69,1.43,2.12
12.188,1.55,0.44,1.90,2.49
12.198,1.96,0.27,2.34,3.07
12.208,2.30,0.28,2.65,3.52
12.218,2.31,0.37,2.74,3.61
12.228,1.89,0.57,2.54,3.22
12.238,0.73,1.18,2.01,2.44
12.248,-0.84,1.88,2.12,2.95
12.259,-1.64,2.39,2.84,4.06
12.268,-1.82,3.00,2.72,4.44
12.279,-2.20,3.29,1.30,4.16
12.289,-2.08,3.34,-0.57,3.98
12.299,-1.19,3.42,-2.69,4.51
12.309,-0.66,3.04,-4.83,5.75
12.319,-1.25,2.22,-5.98,6.50
12.329,-2.40,1.57,-5.96,6.61
12.339,-3.22,0.87,-5.22,6.19
12.349,-3.43,0.20,-4.18,5.41
12.359,-3.19,-0.36,-3.39,4.67
12.369,-2.76,-0.19,-2.34,3.63
12.379,-1.86,0.56,-1.38,2.38
12.389,-0.70,1.03,-0.83,1.50
12.399,0.52,0.96,-0.65,1.27
12.409,1.39,0.83,-0.66,1.75
12.419,1.71,0.91,-0.53,2.01
12.429,1.59,1.10,-0.29,1.95
12.440,1.05,1.12,-0.29,1.57
12.449,0.16,0.93,-0.43,1.04
12.460,0.15,0.96,-0.53,1.11
12.470,0.06,0.77,-0.72,1.06
12.480,-0.50,-0.14,-0.85,1.00
12.490,-0.58,-0.89,-0.63,1.24
12.500,-0.36,-1.34,-0.53,1.48
12.510,-0.28,-1.62,-0.59,1.75
12.520,-0.26,-2.02,-0.55,2.11
12.530,-0.28,-2.43,-0.45,2.49
12.540,-0.40,-2.87,-0.28,2.91
12.550,-0.64,-3.25,-0.02,3.31
12.560,-0.98,-3.26,0.08,3.41
12.570,-1.24,-2.90,0.08,3.16
12.580,-1.35,-2.46,0.25,2.82
12.590,-1.33,-1.99,0.34,2.41
12.600,-1.40,-1.59,0.56,2.19
12.610,-1.34,-1.37,0.72,2.05
12.620,-1.18,-1.35,0.81,1.97
12.631,-0.97,-1.40,0.80,1.88
12.641,-0.68,-1.50,0.85,1.85
12.651,-0.32,-1.73,0.95,2.00
12.661,0.06,-1.87,1.06,2.15
12.671,0.44,-1.86,1.10,2.20
12.681,0.71,-1.69,1.10,2.13
12.691,0.78,-1.37,1.03,1.89
12.701,0.75,-1.02,0.90,1.55
12.711,0.58,-0.53,0.82,1.14
12.721,0.36,-0.30,1.14,1.23
12.731,0.14,-0.19,1.36,1.38
12.741,-0.23,-0.23,1.27,1.31
12.751,-0.11,-0.18,0.84,0.87
12.761,0.18,0.55,0.91,1.08
12.771,-0.17,1.55,0.99,1.85
12.781,-0.73,1.92,1.40,2.48
12.791,-0.61,1.54,2.14,2.71
12.801,0.61,1.27,2.79,3.12
12.812,2.05,1.67,3.35,4.27
12.822,2.86,2.69,3.37,5.17
12.832,3.36,4.24,2.56,5.98
12.841,3.43,5.77,1.91,6.98
12.852,3.07,6.90,1.86,7.78
12.862,1.89,6.71,1.66,7.16
12.872,-0.08,4.76,0.95,4.85
12.882,-1.33,2.71,0.07,3.02
12.892,-1.66,1.39,-0.55,2.23
12.902,-1.91,0.52,-0.82,2.14
12.912,-2.11,-0.10,-0.67,2.21
12.922,-1.89,-0.77,-0.41,2.09
12.932,-1.02,-1.36,-0.57,1.79
12.942,-0.14,-1.63,-1.13,1.99
12.952,0.15,-1.53,-2.26,2.73
12.962,0.32,-1.36,-3.14,3.43
12.973,0.34,-1.16,-3.25,3.47
12.982,-0.37,-0.83,-3.29,3.42
12.993,-1.38,-0.44,-3.04,3.37
13.002,-2.29,-0.26,-2.69,3.54
13.013,-2.83,-0.28,-2.26,3.63
13.023,-2.79,-0.28,-1.74,3.30
13.033,-2.39,-0.32,-1.29,2.73
13.043,-1.96,-0.59,-0.90,2.23
13.053,-1.44,-0.88,-0.67,1.81
13.063,-0.73,-1.37,-0.58,1.66
13.073,-0.12,-1.78,-0.52,1.86
13.083,0.21,-1.97,-0.57,2.06
13.093,0.45,-1.89,-0.65,2.05
13.103,0.74,-1.81,-0.69,2.07
13.113,0.80,-1.74,-0.68,2.03
13.123,0.79,-1.55,-0.67,1.87
13.133,0.71,-1.44,-0.71,1.75
13.143,0.63,-1.28,-0.77,1.63
13.153,0.69,-1.15,-0.82,1.57
13.163,0.72,-1.14,-0.76,1.55
13.174,0.66,-1.03,-0.58,1.35
13.184,0.60,-0.87,-0.35,1.12
13.194,0.60,-0.71,-0.14,0.94
13.204,0.68,-0.63,0.11,0.94
13.214,0.84,-0.72,0.40,1.17
13.224,0.99,-0.91,0.73,1.53
13.234,1.11,-1.04,1.01,1.83
13.244,1.33,-1.25,1.15,2.16
13.254,1.59,-1.48,1.25,2.51
13.264,1.74,-1.52,1.44,2.73
13.274,1.90,-1.32,1.56,2.79
13.284,1.99,-1.07,1.60,2.77
13.294,2.10,-0.91,1.26,2.61
13.304,2.28,-0.77,0.77,2.53
13.314,2.32,-0.56,0.43,2.43
13.324,2.16,-0.27,0.44,2.22
13.334,1.91,0.14,0.65,2.03
13.344,1.78,0.64,0.65,2.00
13.355,1.66,0.98,0.81,2.09
13.365,1.52,1.15,1.22,2.27
13.375,1.70,1.04,1.63,2.57
13.385,2.09,0.74,2.04,3.01
13.395,2.30,0.54,2.35,3.34
13.405,2.26,0.49,2.42,3.35
13.415,1.71,0.79,2.13,2.85
13.425,0.49,1.43,1.81,2.36
13.435,-0.59,2.07,1.96,2.91
13.445,-1.15,2.95,2.24,3.88
13.455,-2.02,3.74,1.59,4.53
13.465,-2.77,4.09,0.50,4.97
13.475,-2.44,4.14,-0.89,4.89
13.485,-1.86,3.98,-2.76,5.19
13.495,-1.89,3.34,-4.72,6.08
13.505,-2.59,2.73,-6.03,7.11
13.516,-3.37,2.06,-6.16,7.32
13.525,-3.66,1.12,-5.39,6.61
13.536,-3.34,-0.02,-4.38,5.50
13.546,-2.58,-1.13,-3.41,4.42
13.556,-1.71,-1.45,-2.32,3.22
13.566,-0.60,-0.94,-1.38,1.77
13.576,0.56,-0.18,-0.63,0.86
13.586,1.78,0.16,-0.28,1.81
13.596,2.46,0.13,-0.22,2.47
13.606,2.60,0.35,-0.12,2.63
13.616,2.26,0.62,-0.03,2.34
13.626,1.20,0.74,-0.14,1.42
13.636,0.27,0.86,-0.25,0.93
13.646,0.31,1.06,-0.18,1.12
13.656,-0.27,0.56,-0.30,0.69
13.666,-0.71,-0.32,-0.45,0.90
13.676,-0.66,-0.86,-0.63,1.26
13.686,-0.46,-1.18,-0.80,1.50
13.696,-0.38,-1.54,-0.94,1.84
13.707,-0.37,-1.95,-0.94,2.19
13.717,-0.47,-2.31,-0.76,2.47
13.727,-0.80,-2.54,-0.46,2.70
13.737,-1.30,-2.62,-0.28,2.94
13.747,-1.71,-2.58,-0.03,3.10
13.757,-2.02,-2.45,0.18,3.17
13.767,-2.05,-2.32,0.26,3.11
13.777,-1.94,-2.19,0.40,2.95
13.787,-1.66,-1.99,0.74,2.70
13.797,-1.25,-1.75,1.07,2.40
13.807,-0.68,-1.60,1.14,2.08
13.817,-0.12,-1.63,1.01,1.92
13.827,0.33,-1.78,0.76,1.96
13.837,0.70,-1.93,0.70,2.17
13.847,0.99,-2.06,0.90,2.45
13.857,1.30,-2.11,1.19,2.75
13.867,1.69,-2.04,1.37,2.99
13.877,2.10,-1.86,1.56,3.21
13.887,2.25,-1.48,1.45,3.05
13.898,2.05,-0.93,1.05,2.48
13.908,1.51,-0.44,1.27,2.01
13.918,0.79,0.05,1.18,1.42
13.928,0.10,0.53,1.32,1.42
13.938,-0.11,0.67,1.44,1.59
13.948,0.05,0.72,1.24,1.43
13.958,-0.09,0.80,1.32,1.55
13.968,-0.52,1.13,1.71,2.11
13.978,-0.65,1.11,2.42,2.74
13.988,0.41,0.98,3.01,3.19
13.998,2.23,1.21,3.50,4.32
14.008,3.56,1.66,3.67,5.38
14.018,4.37,2.95,2.76,5.95
14.028,4.68,5.14,1.93,7.21
14.038,4.44,7.01,2.03,8.54
14.048,3.19,7.56,1.69,8.38
14.059,0.54,6.58,0.66,6.63
14.069,-2.08,5.24,-0.43,5.65
14.079,-3.52,4.12,-1.07,5.52
14.089,-3.76,2.80,-1.16,4.84
14.099,-3.42,0.99,-0.67,3.62
14.109,-2.69,-0.89,-0.15,2.84
14.119,-1.47,-1.96,-0.55,2.51
14.129,-0.37,-2.17,-1.26,2.54
14.139,0.34,-1.84,-2.39,3.04
14.149,0.68,-1.57,-3.07,3.51
14.159,0.30,-1.48,-3.03,3.39
14.169,-0.73,-1.25,-3.04,3.37
14.179,-1.81,-0.90,-2.81,3.46
14.189,-2.71,-0.48,-2.47,3.70
14.199,-3.20,-0.29,-2.07,3.82
14.209,-3.32,-0.47,-1.69,3.75
14.219,-3.06,-0.85,-1.32,3.44
14.230,-2.34,-1.26,-1.06,2.86
14.240,-1.64,-1.47,-0.74,2.32
14.250,-0.97,-1.85,-0.76,2.22
14.260,-0.35,-2.14,-0.92,2.36
14.270,-0.29,-1.94,-1.08,2.24
14.280,0.00,-1.95,-1.32,2.35
14.290,0.19,-1.98,-1.40,2.43
14.300,0.30,-1.90,-1.33,2.34
14.310,0.52,-1.77,-1.24,2.22
14.320,0.60,-1.65,-1.15,2.10
14.330,0.54,-1.54,-1.12,1.98
14.340,0.60,-1.44,-0.98,1.84
14.350,0.68,-1.32,-0.66,1.62
14.360,0.73,-1.17,-0.22,1.40
14.370,0.71,-0.87,0.10,1.13
14.380,0.72,-0.56,0.35,0.98
14.390,0.70,-0.37,0.59,0.99
14.400,0.82,-0.37,0.85,1.24
14.410,1.02,-0.90,0.91,1.64
14.420,1.06,-1.27,0.92,1.89
14.431,1.08,-1.47,1.07,2.12
14.441,1.22,-1.51,1.19,2.28
14.451,1.46,-1.47,1.18,2.38
14.461,1.61,-1.25,1.09,2.31
14.471,1.56,-0.99,0.96,2.08
14.481,1.41,-0.70,0.82,1.78
14.491,1.47,-0.43,0.73,1.70
14.501,1.42,-0.33,0.96,1.74
14.511,1.48,-0.06,0.99,1.78
14.521,1.46,0.28,0.94,1.76
14.531,1.53,0.47,1.06,1.92
14.541,1.42,0.52,1.78,2.34
14.551,1.41,0.48,2.66,3.05
14.561,1.88,0.39,3.38,3.88
14.571,2.38,0.46,3.71,4.43
14.581,2.57,0.65,3.70,4.55
14.592,2.35,0.72,3.24,4.06
14.601,1.31,1.36,2.05,2.78
14.611,-0.27,2.42,1.33,2.78
14.622,-0.86,3.00,1.70,3.55
14.632,-0.91,3.63,1.90,4.20
14.642,-1.58,3.76,0.59,4.12
14.652,-1.68,3.24,-1.94,4.13
14.662,-1.31,2.80,-4.79,5.70
14.672,-1.67,2.46,-6.64,7.28
14.682,-2.62,1.82,-6.90,7.60
14.692,-3.60,1.32,-6.50,7.55
14.702,-3.90,1.43,-5.22,6.67
14.712,-3.77,1.48,-3.61,5.43
14.722,-3.21,1.22,-2.38,4.18
14.732,-2.43,1.17,-1.38,3.03
14.742,-1.34,1.39,-0.67,2.05
14.752,0.21,1.40,-0.44,1.48
14.762,1.53,1.05,-0.34,1.89
14.772,2.41,1.00,-0.13,2.61
14.782,2.61,1.30,0.10,2.92
14.793,2.01,1.15,0.16,2.32
14.803,1.41,1.03,0.06,1.75
14.813,1.16,1.16,-0.30,1.67
14.823,0.14,0.33,-0.83,0.91
14.833,-0.46,-0.79,-0.92,1.30
14.843,-0.50,-1.37,-0.65,1.60
14.853,-0.23,-1.79,-0.48,1.86
14.863,-0.02,-2.33,-0.46,2.37
14.873,0.39,-2.89,-0.40,2.94
14.883,0.75,-3.37,-0.34,3.47
14.893,0.58,-3.71,-0.29,3.77
14.903,0.30,-3.72,-0.14,3.74
14.913,-0.06,-3.39,-0.23,3.40
14.923,-0.54,-2.84,-0.24,2.90
14.933,-0.96,-2.13,-0.12,2.34
14.943,-1.33,-1.47,0.04,1.99
14.954,-1.79,-0.99,0.33,2.07
14.964,-2.17,-0.74,0.52,2.35
14.974,-2.43,-0.62,0.54,2.56
14.984,-2.27,-0.71,0.76,2.50
14.994,-1.75,-1.20,0.94,2.32
15.004,-1.03,-1.76,0.90,2.23
15.014,-0.21,-2.13,0.78,2.28
15.024,0.55,-2.33,0.80,2.52
15.034,1.08,-2.35,1.04,2.78
15.044,1.21,-2.11,1.17,2.70
15.054,1.02,-1.70,1.10,2.27
15.064,0.66,-1.08,0.72,1.46
15.074,0.36,-0.34,0.92,1.04
15.084,0.34,0.17,1.40,1.45
15.094,0.35,0.33,1.45,1.53
15.104,0.42,0.46,1.05,1.22
15.114,0.07,1.14,0.91,1.46
15.124,-0.83,1.87,0.94,2.25
15.135,-1.52,1.91,1.61,2.93
15.144,-1.06,1.28,2.72,3.19
15.154,0.66,1.23,3.54,3.80
15.165,2.45,2.27,3.68,4.97
15.175,3.41,4.20,2.38,5.91
15.185,3.54,6.02,0.99,7.06
15.195,3.13,7.09,0.81,7.80
15.205,2.21,7.38,0.74,7.74
15.215,0.39,6.27,0.09,6.28
15.225,-1.33,4.53,-0.56,4.76
15.235,-2.12,3.35,-1.11,4.12
15.245,-2.60,2.36,-1.04,3.66
15.255,-2.60,1.08,-0.41,2.84
15.265,-2.07,-0.27,0.08,2.09
15.275,-1.02,-1.37,-0.07,1.71
15.285,-0.07,-1.88,-0.78,2.04
15.295,0.36,-1.89,-2.05,2.81
15.305,0.60,-2.05,-2.68,3.43
15.316,0.28,-2.02,-2.83,3.49
15.326,-0.60,-1.55,-3.01,3.44
15.336,-1.57,-0.83,-2.91,3.41
15.346,-2.38,-0.35,-2.73,3.64
15.356,-2.87,-0.18,-2.54,3.83
15.366,-2.82,-0.21,-2.24,3.61
15.376,-2.40,-0.47,-1.89,3.09
15.386,-1.79,-0.92,-1.60,2.57
15.396,-1.20,-1.17,-1.27,2.10
15.406,-0.58,-1.44,-1.08,1.89
15.416,0.05,-1.77,-0.84,1.96
15.426,0.40,-1.86,-0.67,2.02
15.436,0.62,-1.66,-0.63,1.88
15.446,0.74,-1.58,-0.70,1.88
15.456,0.81,-1.64,-0.74,1.98
15.466,0.85,-1.66,-0.72,2.00
15.476,0.94,-1.61,-0.72,2.00
15.486,0.86,-1.48,-0.71,1.86
15.497,0.82,-1.37,-0.68,1.74
15.507,0.82,-1.27,-0.54,1.61
15.517,0.93,-1.24,-0.28,1.57
15.527,0.96,-1.15,0.03,1.50
15.537,0.95,-0.99,0.34,1.42
15.547,0.92,-0.96,0.61,1.46
15.557,1.05,-1.06,0.84,1.72
15.567,1.35,-1.34,0.96,2.13
15.577,1.55,-1.51,0.99,2.38
15.587,1.56,-1.65,0.95,2.46
15.597,1.48,-1.64,0.85,2.36
15.607,1.41,-1.25,0.63,1.99
15.617,1.25,-0.63,0.40,1.46
15.627,1.02,-0.17,0.20,1.06
15.637,0.86,-0.03,0.19,0.88
15.647,0.92,0.06,0.15,0.94
15.657,1.02,0.09,0.02,1.02
15.667,0.89,0.04,-0.06,0.89
15.677,0.75,0.02,0.01,0.75
15.688,0.56,0.12,0.22,0.62
15.698,0.41,0.23,0.65,0.80
15.708,0.52,0.18,1.51,1.61
15.718,1.15,0.16,2.25,2.53
15.728,2.03,0.21,2.66,3.36
15.738,2.68,0.29,2.66,3.79
15.748,3.04,0.38,2.40,3.89
15.758,3.04,0.44,2.12,3.74
15.768,2.43,0.88,1.65,3.06
15.778,1.01,2.01,1.32,2.61
15.788,-0.21,2.84,1.65,3.29
15.798,-0.28,3.35,2.01,3.92
15.808,-0.45,3.70,1.58,4.05
15.818,-1.05,3.60,0.27,3.76
15.828,-1.08,3.27,-1.28,3.67
15.838,-0.56,2.79,-2.84,4.02
15.848,-0.34,2.04,-4.17,4.65
15.858,-0.92,1.19,-5.06,5.28
15.869,-2.19,0.47,-5.40,5.85
15.878,-3.42,-0.25,-4.69,5.81
15.889,-3.80,-0.78,-3.32,5.11
15.899,-3.48,-0.98,-2.36,4.32
15.909,-3.06,-0.36,-1.81,3.57
15.919,-2.22,0.79,-1.26,2.68
15.929,-1.16,1.33,-0.78,1.93
15.939,-0.11,1.13,-0.65,1.30
15.949,0.80,0.68,-0.70,1.26
15.959,1.48,0.60,-0.53,1.68
15.969,1.76,0.80,-0.33,1.96
15.979,1.34,0.90,-0.12,1.62
15.989,0.60,0.90,-0.24,1.10
15.999,0.48,1.30,-0.55,1.49
16.009,0.01,1.15,-0.78,1.38
16.019,-0.59,0.32,-0.73,0.99
16.030,-0.75,-0.50,-0.54,1.05
16.040,-0.59,-1.02,-0.24,1.20
16.050,-0.23,-1.36,-0.13,1.38
16.060,0.11,-1.89,-0.19,1.90
16.070,0.23,-2.38,-0.09,2.39
16.080,0.32,-2.75,-0.14,2.77
16.090,0.07,-2.85,-0.23,2.86
16.100,-0.44,-2.70,-0.20,2.74
16.110,-0.85,-2.43,0.10,2.57
16.120,-1.14,-2.15,0.25,2.45
16.130,-1.35,-1.89,0.27,2.34
16.140,-1.57,-1.71,0.30,2.34
16.150,-1.77,-1.64,0.40,2.44
16.160,-1.78,-1.63,0.59,2.49
16.170,-1.53,-1.64,0.76,2.37
16.181,-1.10,-1.71,1.01,2.27
16.191,-0.66,-1.98,1.27,2.44
16.201,-0.26,-2.33,1.28,2.67
16.210,0.18,-2.56,1.19,2.83
16.221,0.70,-2.54,1.26,2.92
16.230,1.14,-2.21,1.39,2.84
16.241,1.32,-1.49,1.29,2.38
16.251,1.26,-0.81,1.17,1.90
16.261,1.06,-0.29,1.08,1.54
16.271,0.79,0.10,1.17,1.42
16.281,0.30,0.26,1.06,1.13
16.291,-0.04,0.26,0.51,0.58
16.301,-0.45,0.33,0.12,0.57
16.311,-1.63,0.74,0.27,1.81
16.321,-2.35,1.28,1.55,3.10
16.331,-1.51,1.43,3.07,3.71
16.341,0.79,1.75,3.91,4.35
16.351,2.90,2.39,3.92,5.43
16.361,3.72,3.82,3.10,6.17
16.371,3.96,5.59,1.88,7.10
16.381,3.75,7.13,1.36,8.17
16.391,2.88,8.48,1.18,9.03
16.401,1.02,8.66,1.00,8.78
16.412,-1.13,6.95,0.63,7.07
16.422,-2.41,4.08,0.54,4.77
16.432,-2.20,1.27,0.48,2.59
16.442,-1.50,-0.53,0.60,1.69
16.452,-0.99,-1.77,0.99,2.25
16.462,-0.09,-2.48,1.04,2.69
16.472,1.09,-2.64,0.49,2.90
16.482,1.68,-2.31,-0.77,2.96
16.492,1.82,-1.60,-2.66,3.60
16.502,1.45,-1.17,-3.57,4.03
16.512,0.05,-0.74,-3.72,3.79
16.522,-1.78,-0.23,-3.46,3.90
16.532,-3.27,0.14,-3.21,4.58
16.542,-4.25,0.28,-2.94,5.18
16.552,-4.54,0.16,-2.44,5.15
16.562,-4.18,-0.18,-1.93,4.61
16.572,-3.32,-0.66,-1.46,3.69
16.583,-2.11,-1.30,-1.06,2.70
16.593,-1.06,-1.68,-0.62,2.09
16.603,-0.37,-1.81,-0.45,1.90
16.613,0.35,-2.09,-0.58,2.20
16.623,0.71,-2.07,-0.80,2.33
16.633,0.74,-1.85,-0.94,2.20
16.643,0.74,-1.92,-1.00,2.29
16.653,0.58,-2.08,-1.07,2.41
16.663,0.56,-2.07,-1.08,2.40
16.673,0.56,-2.01,-1.03,2.33
16.683,0.63,-1.95,-0.97,2.27
16.693,0.62,-1.82,-0.86,2.11
16.703,0.72,-1.70,-0.70,1.98
16.713,0.71,-1.55,-0.45,1.76
16.723,0.63,-1.42,-0.18,1.56
16.733,0.66,-1.16,0.19,1.35
16.743,0.72,-0.72,0.52,1.14
16.754,0.75,-0.73,0.71,1.27
16.764,0.87,-0.76,0.75,1.38
16.774,1.16,-0.74,0.83,1.61
16.784,1.52,-0.87,1.06,2.05
16.794,1.85,-0.90,1.23,2.39
16.804,1.95,-0.87,1.16,2.43
16.814,1.85,-0.76,1.03,2.24
16.824,1.66,-0.55,0.87,1.95
16.834,1.50,-0.30,0.56,1.63
16.844,1.31,-0.23,0.47,1.41
16.854,1.15,-0.19,0.61,1.31
16.864,0.94,0.13,0.58,1.11
16.874,0.88,0.53,0.60,1.19
16.884,0.81,0.68,1.18,1.59
16.894,1.05,0.73,1.86,2.25
16.904,1.91,0.54,2.41,3.12
16.914,2.58,0.30,2.69,3.74
16.924,2.65,0.21,2.48,3.64
16.935,2.23,0.19,2.09,3.06
16.945,1.22,0.63,1.61,2.11
16.955,-0.20,1.61,1.18,2.01
16.965,-1.20,2.41,1.51,3.08
16.975,-1.42,3.11,2.31,4.13
16.985,-1.61,3.79,1.97,4.56
16.995,-1.70,3.85,0.32,4.22
17.005,-1.29,3.73,-1.87,4.37
17.015,-0.71,3.40,-3.92,5.24
17.025,-0.87,2.42,-5.21,5.81
17.035,-1.62,1.39,-5.77,6.16
17.045,-2.53,0.64,-5.50,6.08
17.055,-3.11,-0.21,-4.26,5.28
17.065,-3.27,-0.68,-3.07,4.54
17.075,-2.78,-0.41,-2.47,3.74
17.085,-1.83,0.47,-2.15,2.86
17.095,-0.73,1.22,-1.62,2.15
17.105,0.19,1.21,-0.78,1.45
17.116,0.91,0.80,-0.38,1.27
17.126,1.67,0.66,-0.33,1.83
17.136,2.01,0.94,-0.27,2.24
17.146,1.75,1.36,-0.09,2.22
17.156,0.87,1.45,-0.13,1.69
17.166,-0.09,1.52,-0.42,1.58
17.176,-0.17,1.87,-0.54,1.96
17.186,-0.73,1.19,-0.60,1.51
17.196,-1.08,0.13,-0.36,1.14
17.206,-0.79,-0.65,-0.15,1.04
17.216,-0.43,-1.27,-0.20,1.36
17.226,-0.03,-1.88,-0.35,1.92
17.236,0.24,-2.51,-0.40,2.56
17.246,0.34,-3.01,-0.39,3.05
17.256,0.22,-3.33,-0.46,3.37
17.266,-0.10,-3.46,-0.47,3.49
17.277,-0.42,-3.27,-0.24,3.30
17.286,-0.69,-2.90,0.11,2.98
17.297,-0.89,-2.42,0.27,2.59
17.306,-1.05,-1.93,0.27,2.21
17.317,-1.14,-1.54,0.32,1.94
17.327,-1.13,-1.32,0.40,1.78
17.337,-1.03,-1.25,0.46,1.68
17.347,-0.88,-1.29,0.33,1.59
17.357,-0.71,-1.36,0.19,1.54
17.367,-0.50,-1.42,0.26,1.53
17.377,-0.20,-1.50,0.68,1.66
17.387,0.18,-1.53,1.23,1.97
17.397,0.55,-1.52,1.54,2.24
17.407,1.05,-1.53,1.68,2.50
17.417,1.61,-1.51,1.80,2.85
17.427,1.72,-1.08,1.34,2.43
17.437,1.45,-0.67,1.06,1.91
17.447,1.16,-0.48,1.18,1.72
17.457,0.88,-0.16,1.05,1.37
17.467,0.66,0.21,1.41,1.57
17.478,0.66,0.60,1.50,1.75
17.488,0.44,0.90,1.26,1.61
17.498,0.00,1.14,1.19,1.65
17.508,-0.26,1.15,1.76,2.12
17.518,0.34,0.98,2.58,2.78
17.528,1.69,0.95,3.19,3.73
17.538,2.96,1.22,3.28,4.58
17.548,3.80,2.11,2.61,5.07
17.558,3.99,3.99,1.34,5.80
17.568,3.23,5.97,0.42,6.80
17.578,1.82,7.08,0.25,7.32
17.588,0.07,7.03,-0.08,7.03
17.598,-1.54,5.85,-0.97,6.13
17.608,-2.72,4.56,-1.71,5.58
17.618,-3.51,3.42,-1.48,5.12
17.628,-3.78,1.92,-0.74,4.31
17.638,-3.26,-0.09,-0.40,3.28
17.648,-2.19,-1.84,-0.35,2.88
17.659,-1.08,-2.86,-0.55,3.10
17.669,-0.19,-3.27,-1.06,3.45
17.679,0.36,-3.15,-2.00,3.75
17.689,0.63,-2.73,-2.55,3.79
17.699,0.37,-1.89,-2.53,3.18
17.709,-0.45,-0.70,-2.34,2.48
17.719,-1.47,0.18,-2.17,2.62
17.729,-2.51,0.55,-2.23,3.40
17.739,-3.23,0.53,-2.30,4.00
17.749,-3.42,0.23,-2.18,4.06
17.759,-3.15,-0.18,-1.88,3.68
17.769,-2.56,-0.79,-1.58,3.11
17.779,-1.91,-1.34,-1.25,2.65
17.789,-1.45,-1.51,-0.88,2.27
17.799,-0.81,-1.84,-0.74,2.15
17.809,-0.45,-1.81,-0.72,2.00
17.819,-0.16,-1.45,-0.74,1.64
17.830,0.17,-1.26,-0.85,1.53
17.840,0.46,-1.20,-0.86,1.55
17.850,0.68,-1.25,-0.77,1.62
17.860,0.87,-1.31,-0.63,1.69
17.870,1.00,-1.31,-0.59,1.75
17.880,1.11,-1.20,-0.54,1.73
17.890,1.26,-1.06,-0.46,1.71
17.900,1.36,-0.88,-0.28,1.65
17.910,1.31,-0.64,-0.10,1.46
17.920,1.26,-0.46,0.01,1.34
17.930,1.27,-0.33,0.10,1.32
17.940,1.25,-0.18,0.22,1.29
17.950,1.22,-0.31,0.46,1.34
17.960,1.10,-0.73,0.69,1.49
17.970,1.00,-1.09,0.97,1.78
17.981,1.00,-1.37,1.26,2.12
17.990,1.12,-1.59,1.49,2.45
18.000,1.14,-1.78,1.63,2.67
18.011,1.09,-1.97,1.52,2.71
18.021,1.15,-1.99,1.30,2.64
18.031,1.41,-1.68,0.94,2.39
18.041,1.66,-1.16,0.41,2.07
18.051,1.61,-0.71,0.17,1.77
18.061,1.39,-0.30,0.19,1.43
18.071,1.22,0.21,0.27,1.26
18.081,1.23,0.68,0.55,1.51
18.091,1.21,0.98,1.06,1.88
18.101,1.40,1.11,1.60,2.40
18.111,1.92,1.10,2.04,3.01
18.121,2.40,0.95,2.28,3.44
18.131,2.55,0.77,2.35,3.55
18.141,2.31,0.68,2.31,3.34
18.151,1.84,0.59,2.35,3.04
18.161,0.95,0.83,2.18,2.52
18.171,-0.42,1.48,1.90,2.44
18.182,-1.30,2.04,2.26,3.31
18.192,-1.56,2.78,2.66,4.15
18.202,-1.93,3.57,1.56,4.35
18.212,-2.12,3.98,-0.54,4.54
18.222,-1.38,4.19,-2.65,5.14
18.232,-0.55,3.88,-4.31,5.82
18.242,-0.65,2.74,-5.34,6.04
18.252,-1.64,1.73,-5.88,6.34
18.262,-2.75,0.86,-5.48,6.19
18.272,-3.46,-0.16,-4.29,5.52
18.282,-3.34,-0.90,-3.07,4.62
18.292,-2.70,-1.03,-2.21,3.64
18.302,-1.69,-0.56,-1.43,2.29
18.312,-0.67,0.32,-0.75,1.05
18.322,0.51,0.63,-0.49,0.95
18.332,1.51,0.59,-0.76,1.79
18.343,1.88,0.68,-0.81,2.16
18.352,1.96,1.07,-0.49,2.28
18.362,1.55,1.41,-0.25,2.12
18.373,0.42,1.39,-0.34,1.50
18.383,-0.00,1.23,-0.46,1.31
18.393,0.36,1.13,-0.44,1.26
18.403,-0.22,0.32,-0.52,0.65
18.413,-0.56,-0.53,-0.41,0.87
18.423,-0.36,-1.03,-0.32,1.14
18.433,0.01,-1.36,-0.33,1.40
18.443,0.15,-1.69,-0.47,1.76
18.453,0.23,-2.11,-0.38,2.16
18.463,0.01,-2.43,-0.10,2.43
18.473,-0.40,-2.52,0.11,2.55
18.483,-0.72,-2.46,0.28,2.58
18.493,-0.81,-2.41,0.27,2.56
18.503,-0.91,-2.32,0.26,2.51
18.513,-0.97,-2.13,0.49,2.39
18.523,-0.90,-1.89,0.76,2.23
18.533,-0.75,-1.64,0.94,2.04
18.543,-0.47,-1.48,1.01,1.85
18.554,-0.13,-1.46,0.99,1.77
18.564,0.16,-1.58,0.95,1.85
18.574,0.44,-1.90,1.00,2.19
18.584,0.77,-2.24,1.01,2.58
18.594,1.12,-2.39,0.94,2.80
18.604,1.34,-2.37,0.95,2.88
18.614,1.42,-2.16,1.11,2.82
18.624,1.40,-1.74,1.36,2.61
18.634,1.11,-0.95,1.15,1.86
18.644,0.64,-0.30,0.96,1.19
18.654,0.14,0.18,0.64,0.68
18.664,-0.27,0.66,0.64,0.96
18.674,-0.67,0.82,0.78,1.31
18.684,-0.44,0.83,0.93,1.32
18.694,0.12,1.02,1.22,1.60
18.704,-0.01,1.36,1.23,1.84
18.714,-0.37,1.55,1.56,2.23
18.724,-0.33,1.10,2.41,2.66
18.735,0.95,0.80,2.98,3.22
18.745,2.58,1.29,3.06,4.21
18.755,3.43,2.53,2.56,4.97
18.765,3.67,4.28,1.56,5.85
18.775,3.48,5.92,0.91,6.93
18.785,2.81,6.89,0.76,7.48
18.795,1.28,6.57,0.62,6.72
18.805,-0.98,5.09,-0.28,5.19
18.815,-2.64,3.56,-1.49,4.68
18.825,-3.35,2.47,-1.91,4.58
18.835,-3.69,1.22,-1.34,4.11
18.845,-3.50,-0.52,-0.38,3.56
18.855,-2.49,-2.07,-0.16,3.24
18.865,-1.30,-2.75,-0.86,3.17
18.875,-0.49,-2.71,-1.88,3.33
18.885,0.08,-2.17,-2.70,3.47
18.895,0.12,-1.32,-2.88,3.17
18.906,-0.68,-0.22,-2.73,2.82
18.915,-1.79,0.74,-2.52,3.17
18.926,-2.57,1.27,-2.28,3.66
18.936,-2.97,1.34,-2.11,3.88
18.946,-3.02,1.00,-1.91,3.71
18.956,-2.75,0.29,-1.69,3.24
18.966,-2.21,-0.59,-1.53,2.75
18.976,-1.44,-1.34,-1.28,2.35
18.986,-0.91,-1.55,-0.97,2.04
18.996,-0.26,-1.81,-1.06,2.11
19.006,0.25,-1.91,-1.09,2.21
19.016,0.40,-1.83,-1.15,2.20
19.026,0.60,-1.96,-1.18,2.37
19.036,0.79,-2.17,-1.16,2.58
19.046,0.87,-2.17,-1.06,2.57
19.056,0.88,-1.93,-1.02,2.35
19.066,0.82,-1.59,-1.01,2.05
19.076,0.68,-1.20,-0.94,1.67
19.087,0.59,-0.83,-0.87,1.34
19.097,0.60,-0.44,-0.71,1.03
19.107,0.72,-0.07,-0.55,0.91
19.117,0.87,0.28,-0.42,1.01
19.127,0.96,0.43,-0.28,1.09
19.137,0.87,0.34,-0.13,0.94
19.147,0.69,0.07,0.09,0.70
19.157,0.55,-0.39,0.35,0.76
19.167,0.48,-0.69,0.48,0.97
19.177,0.53,-0.87,0.50,1.13
19.187,0.63,-0.82,0.49,1.15
19.197,0.74,-0.59,0.42,1.04
19.207,0.76,-0.54,0.52,1.07
19.217,0.88,-0.59,0.62,1.23
19.227,1.11,-0.58,0.35,1.30
19.237,1.13,-0.57,0.16,1.28
19.247,1.13,-0.53,0.34,1.29
19.257,1.17,-0.38,0.62,1.38
19.268,1.35,-0.23,0.81,1.59
19.278,1.81,-0.19,1.16,2.16
19.288,2.14,-0.21,1.32,2.53
19.298,2.21,-0.40,1.28,2.58
19.308,2.16,-0.71,1.52,2.74
19.318,2.19,-0.52,1.80,2.88
19.328,1.99,-0.08,1.67,2.60
19.338,1.49,0.18,1.37,2.03
19.348,0.74,0.45,1.02,1.34
19.358,-0.51,1.03,0.61,1.30
19.368,-1.74,1.42,0.78,2.37
19.378,-2.12,1.80,1.30,3.08
19.388,-2.21,2.44,1.24,3.52
19.398,-2.41,2.76,0.39,3.68
19.408,-1.92,2.62,-0.65,3.31
19.418,-0.94,2.20,-1.62,2.89
19.428,-0.43,1.71,-2.83,3.34
19.438,-0.94,1.21,-4.20,4.47
19.449,-1.93,0.66,-5.22,5.61
19.459,-2.61,-0.40,-5.17,5.81
19.469,-3.05,-1.45,-4.21,5.40
19.479,-3.01,-1.78,-3.02,4.62
19.489,-2.32,-1.10,-1.98,3.24
19.499,-1.04,0.19,-1.08,1.52
19.509,0.25,1.05,-0.56,1.22
19.519,1.11,1.50,-0.41,1.91
19.529,1.49,1.82,-0.54,2.41
19.539,1.32,2.18,-0.72,2.65
19.549,0.90,2.71,-0.77,2.96
19.559,0.29,3.32,-0.83,3.44
19.569,-0.49,3.39,-0.73,3.50
19.579,-1.28,3.08,-0.46,3.37
19.589,-1.62,2.72,-0.36,3.18
19.599,-1.57,1.95,-0.41,2.54
19.609,-1.56,0.74,-0.41,1.78
19.620,-1.27,-0.25,-0.48,1.37
19.629,-0.77,-0.92,-0.71,1.40
19.639,-0.34,-1.44,-0.88,1.72
19.650,0.02,-1.60,-0.88,1.83
19.660,0.34,-1.65,-0.94,1.93
19.670,0.51,-1.53,-1.07,1.94
19.680,0.43,-1.23,-1.13,1.73
19.690,0.14,-0.86,-0.94,1.28
19.700,-0.15,-0.54,-0.82,0.99
19.710,-0.46,-0.38,-1.00,1.16
19.720,-0.95,-0.45,-1.05,1.49
19.730,-1.27,-0.68,-0.87,1.68
19.740,-1.44,-0.91,-0.67,1.83
19.750,-1.53,-1.14,-0.57,1.99
19.760,-1.52,-1.35,-0.42,2.08
19.770,-1.48,-1.46,-0.37,2.11
19.780,-1.41,-1.46,-0.46,2.07
19.790,-1.20,-1.42,-0.66,1.97
19.800,-0.97,-1.43,-0.76,1.89
19.810,-0.74,-1.44,-0.77,1.79
19.821,-0.61,-1.32,-0.79,1.66
19.831,-0.69,-1.17,-0.64,1.51
19.841,-0.94,-0.88,-0.44,1.36
19.851,-1.19,-0.41,-0.36,1.31
19.861,-1.38,-0.04,-0.38,1.43
19.871,-1.29,0.11,-0.35,1.35
19.881,-1.01,0.09,-0.38,1.08
19.891,-0.71,0.01,-0.30,0.77
19.901,-0.30,-0.05,-0.21,0.37
19.911,0.14,0.07,-0.15,0.22
19.921,0.37,0.22,-0.08,0.44
19.931,0.55,0.20,0.07,0.59
19.941,0.79,-0.01,0.34,0.86
19.951,1.10,-0.20,0.59,1.26
19.961,1.43,-0.31,0.71,1.63
19.971,1.67,-0.27,0.80,1.87
19.981,1.83,0.02,1.04,2.10
19.992,1.94,0.93,1.23,2.48
20.002,1.95,2.24,1.17,3.19
20.012,1.58,3.21,1.04,3.73
20.022,0.86,3.47,0.89,3.68
20.032,0.07,2.96,0.54,3.01
20.042,-0.67,1.80,0.08,1.92
20.052,-1.11,0.55,-0.15,1.25
20.062,-1.09,-0.35,0.06,1.15
20.072,-0.90,-1.01,0.48,1.43
20.082,-0.92,-1.36,0.78,1.82
20.092,-1.00,-1.31,0.82,1.83
20.102,-0.88,-0.86,0.55,1.35
20.112,-0.58,-0.34,0.27,0.72
20.122,-0.30,0.01,-0.20,0.36
20.132,-0.12,0.12,-0.79,0.81
20.142,-0.17,0.08,-1.29,1.31
20.152,-0.33,0.18,-1.89,1.93
20.163,-0.73,0.33,-2.25,2.39
20.173,-1.13,0.22,-2.11,2.40
20.183,-1.38,0.11,-1.84,2.30
20.193,-1.47,0.10,-1.65,2.21
20.203,-1.37,0.26,-1.64,2.15
20.213,-1.23,0.50,-1.54,2.03
20.223,-1.07,0.71,-1.29,1.82
20.233,-0.83,0.81,-1.03,1.55
20.243,-0.60,0.84,-0.96,1.41
20.253,-0.45,0.86,-1.11,1.47
20.263,-0.39,0.81,-1.29,1.57
20.273,-0.51,0.53,-1.41,1.59
20.283,-0.64,0.14,-1.56,1.69
20.293,-0.61,-0.14,-1.71,1.82
20.303,-0.54,-0.25,-1.78,1.87
20.314,-0.47,-0.27,-1.81,1.89
20.323,-0.26,-0.12,-1.75,1.78
20.334,-0.04,0.07,-1.64,1.65
20.344,0.12,0.10,-1.55,1.56
20.354,0.27,-0.02,-1.49,1.51
20.364,0.35,-0.14,-1.45,1.50
20.374,0.37,-0.14,-1.39,1.45
20.384,0.38,-0.04,-1.25,1.30
20.394,0.43,0.14,-1.06,1.15
20.404,0.46,0.32,-0.94,1.10
20.414,0.54,0.31,-0.84,1.05
20.424,0.67,0.14,-0.81,1.06
20.434,0.76,-0.02,-0.83,1.13
20.444,0.76,-0.06,-0.78,1.09
20.454,0.65,-0.04,-0.72,0.97
20.464,0.45,-0.06,-0.64,0.79
20.474,0.25,-0.15,-0.60,0.67
20.484,0.23,-0.13,-0.70,0.74
20.494,0.22,0.02,-0.79,0.82
20.504,0.18,0.27,-0.95,1.00
20.515,0.20,0.54,-1.06,1.21
20.524,0.20,0.75,-1.13,1.37
20.535,0.27,0.88,-1.23,1.54
20.545,0.29,0.80,-1.06,1.36
20.555,0.31,0.61,-0.79,1.05
20.565,0.26,0.41,-0.75,0.89
20.575,0.13,0.25,-0.78,0.83
20.585,0.10,0.34,-0.62,0.72
20.595,-0.09,0.71,-0.67,0.98
20.605,-0.45,1.05,-0.80,1.39
20.615,-0.90,1.22,-0.92,1.77
20.625,-1.19,1.19,-0.83,1.88
20.635,-1.41,0.88,-0.50,1.74
20.645,-1.64,0.46,-0.07,1.70
20.655,-1.64,0.03,0.28,1.67
20.665,-1.43,-0.42,0.24,1.51
20.675,-0.99,-0.92,-0.13,1.36
20.685,-0.33,-1.20,-0.36,1.29
20.696,0.29,-1.15,-0.39,1.25
20.706,0.72,-0.89,-0.41,1.22
20.715,0.82,-0.53,-0.39,1.05
20.726,0.72,-0.27,-0.24,0.81
20.736,0.58,-0.10,-0.04,0.59
20.746,0.47,-0.05,0.10,0.48
20.756,0.45,-0.05,0.13,0.47
20.766,0.48,-0.10,0.15,0.52
20.776,0.45,-0.16,0.28,0.55
20.786,0.45,-0.12,0.35,0.58
20.796,0.48,-0.02,0.38,0.61
20.806,0.37,-0.03,0.40,0.55
20.816,0.18,-0.13,0.29,0.36
20.826,-0.08,-0.28,0.10,0.31
20.836,-0.29,-0.31,0.09,0.43
20.846,-0.37,-0.28,0.20,0.50
20.856,-0.31,-0.19,0.34,0.50
20.866,-0.22,-0.10,0.31,0.39
20.877,-0.24,0.02,0.22,0.32
20.887,-0.26,0.17,0.15,0.34
20.897,-0.09,0.22,-0.02,0.24
20.907,0.06,0.18,-0.10,0.21
20.917,-0.12,0.05,-0.08,0.15
20.927,-0.29,-0.12,0.05,0.32
20.937,-0.46,-0.29,0.29,0.62
20.947,-0.62,-0.32,0.44,0.82
20.957,-0.64,-0.22,0.47,0.83
20.967,-0.69,-0.20,0.33,0.79
20.977,-0.70,-0.17,0.12,0.73
20.987,-0.68,-0.07,-0.08,0.68
20.997,-0.65,0.01,-0.25,0.70
21.007,-0.50,0.11,-0.23,0.56
21.017,-0.41,0.16,-0.14,0.46
21.027,-0.33,0.08,-0.08,0.35
21.037,-0.32,0.00,0.08,0.33
21.047,-0.31,-0.08,0.24,0.40
21.057,-0.25,-0.19,0.40,0.51
21.068,-0.16,-0.30,0.51,0.61
21.078,0.04,-0.30,0.48,0.56
21.088,0.20,-0.24,0.46,0.56
21.098,0.15,-0.09,0.31,0.36
21.108,0.08,0.07,0.20,0.22
21.118,0.05,0.19,0.18,0.27
21.128,-0.01,0.16,0.15,0.22
21.138,-0.03,0.02,0.20,0.21
21.148,-0.04,-0.07,0.22,0.24
21.158,0.02,-0.14,0.14,0.20
21.168,0.13,-0.16,0.06,0.22
21.178,0.24,-0.12,0.02,0.27
21.188,0.28,-0.04,0.11,0.30
21.198,0.22,0.03,0.17,0.28
21.208,0.15,0.04,0.15,0.21
21.218,0.06,-0.01,0.10,0.12
21.229,-0.01,-0.08,0.19,0.20
21.239,-0.02,-0.12,0.27,0.29
21.248,0.02,-0.19,0.25,0.31
21.259,0.04,-0.23,0.22,0.32
21.269,0.06,-0.20,0.17,0.27
21.279,0.05,-0.07,0.11,0.14
21.289,0.07,0.06,0.09,0.13
21.299,0.08,0.07,0.03,0.11
21.309,0.08,-0.01,0.05,0.10
21.319,0.12,-0.02,0.05,0.13
21.329,0.15,-0.00,0.03,0.15
21.339,0.12,0.00,-0.00,0.12
21.349,0.12,0.02,0.02,0.12
21.359,0.11,0.03,0.01,0.11
21.369,0.07,-0.03,0.02,0.08
21.379,0.06,-0.13,0.06,0.15
21.389,0.03,-0.20,0.08,0.22
21.399,0.03,-0.20,0.08,0.22
21.409,0.05,-0.10,0.08,0.14
21.420,0.06,-0.01,0.03,0.06
21.430,0.08,0.02,-0.01,0.09
21.440,0.12,0.03,-0.07,0.14
21.450,0.13,0.03,-0.06,0.15
21.460,0.11,0.01,-0.00,0.11
21.470,0.12,0.03,0.03,0.13
21.480,0.14,0.07,0.07,0.17
21.490,0.09,0.08,0.03,0.12
21.500,0.12,0.02,0.00,0.12
21.510,0.11,-0.07,0.02,0.13
21.520,0.07,-0.09,-0.04,0.12
21.530,0.07,-0.07,-0.07,0.12
21.540,0.04,-0.03,-0.08,0.10
21.550,-0.01,-0.02,-0.10,0.11
21.561,-0.02,-0.02,-0.07,0.08
21.571,-0.04,-0.04,-0.01,0.06
21.580,-0.03,-0.02,-0.06,0.07
21.591,-0.04,-0.00,-0.08,0.09
21.601,-0.07,-0.02,-0.07,0.10
21.611,-0.10,-0.08,-0.07,0.15
21.621,-0.11,-0.15,-0.02,0.18
21.631,-0.10,-0.15,-0.01,0.18
21.641,-0.08,-0.07,-0.10,0.15
21.651,-0.05,0.05,-0.17,0.18
21.661,0.01,0.17,-0.20,0.26
21.671,-0.03,0.18,-0.15,0.23
21.681,-0.11,0.09,-0.09,0.17
21.691,-0.14,-0.00,0.03,0.14
21.701,-0.09,-0.08,0.06,0.13
21.711,-0.03,-0.13,0.05,0.14
21.721,0.10,-0.09,0.05,0.15
21.731,0.17,-0.05,0.02,0.18
21.741,0.22,0.04,-0.02,0.22
21.751,0.16,0.11,-0.07,0.20
21.762,0.12,0.12,-0.08,0.19
21.772,0.02,0.10,-0.11,0.15
21.782,-0.07,0.04,-0.08,0.11
21.792,-0.06,-0.03,-0.04,0.07
21.802,-0.02,-0.08,-0.05,0.10
21.812,0.05,-0.06,-0.02,0.08
21.822,0.11,-0.10,0.07,0.16
21.832,0.17,0.03,-0.05,0.18
21.842,0.09,0.10,0.06,0.14
21.852,0.08,-0.04,0.12,0.15
21.862,0.06,-0.06,0.03,0.09
21.872,0.10,-0.03,-0.01,0.11
21.882,0.14,-0.04,-0.01,0.14
21.892,0.15,0.03,0.01,0.15
21.902,0.08,0.06,0.02,0.10
21.912,0.19,0.07,0.09,0.22
